Subject,Age,Gender,SessionDate,SessionTime,Block,Trial,Choice,ChoiceSide,ChoiceRT,CumulativeReward,ITI,OutcomeL,OutcomeR,RewardAmount,StimType,TrialType
1,19,F,03-12-2012,13:49:35,1,1,Door1,L,4185,20,2000,Win20,Gray,20,102,Decision
1,19,F,03-12-2012,13:49:35,1,2,Door4,R,6104,100,2000,Gray,Win80,80,304,Decision
1,19,F,03-12-2012,13:49:35,1,3,Door1,L,3806,120,1000,Win20,Gray,20,103,Catch
1,19,F,03-12-2012,13:49:35,1,4,Door3,L,2054,180,1000,Win60,Gray,60,304,Decision
1,19,F,03-12-2012,13:49:35,1,5,Door2,L,2394,220,1000,Win40,Gray,40,201,Decision
1,19,F,03-12-2012,13:49:35,1,6,Door2,R,4087,220,2000,Gray,Win0,0,2,
1,19,F,03-12-2012,13:49:35,1,7,Door4,R,2746,300,1000,Gray,Win80,80,204,Catch
1,19,F,03-12-2012,13:49:35,1,8,Door3,L,4464,360,2000,Win60,Gray,60,302,Catch
1,19,F,03-12-2012,13:49:35,1,9,Door1,R,3667,380,2000,Gray,Win20,20,201,Decision
1,19,F,03-12-2012,13:49:35,1,10,Door3,R,2383,440,1000,Gray,Win60,60,203,Catch
1,19,F,03-12-2012,13:49:35,1,11,Door4,L,3212,480,2000,Win40,Gray,40,402,Catch
1,19,F,03-12-2012,13:49:35,1,12,Door3,R,2354,540,2000,Gray,Win60,60,403,Decision
1,19,F,03-12-2012,13:49:35,1,13,Door4,R,2584,620,1000,Gray,Win80,80,304,Decision
1,19,F,03-12-2012,13:49:35,1,14,Door2,R,4319,620,2000,Gray,Win0,0,102,Decision
1,19,F,03-12-2012,13:49:35,1,15,Door1,R,1847,640,1000,Gray,Win20,20,201,Decision
1,19,F,03-12-2012,13:49:35,1,16,Door1,L,2402,660,1000,Win20,Gray,20,1,
1,19,F,03-12-2012,13:49:35,1,17,Door2,L,1761,660,1000,Win0,Gray,0,2,
1,19,F,03-12-2012,13:49:35,1,18,Door4,L,4271,700,2000,Win40,Gray,40,403,Decision
1,19,F,03-12-2012,13:49:35,1,19,Door1,L,1514,720,1000,Win20,Gray,20,102,Decision
1,19,F,03-12-2012,13:49:35,1,20,Door3,R,1491,780,2000,Gray,Win60,60,103,Catch
1,19,F,03-12-2012,13:49:35,1,21,Door3,R,2341,840,1000,Gray,Win60,60,403,Decision
1,19,F,03-12-2012,13:49:35,1,22,Door4,L,1421,880,2000,Win40,Gray,40,402,Catch
1,19,F,03-12-2012,13:49:35,1,23,Door1,R,1922,900,1000,Gray,Win20,20,201,Decision
1,19,F,03-12-2012,13:49:35,1,24,Door3,R,2106,960,1000,Gray,Win60,60,203,Catch
1,19,F,03-12-2012,13:49:35,1,25,Door1,R,1884,980,1000,Gray,Win20,20,201,Decision
1,19,F,03-12-2012,13:49:35,1,26,Door1,L,1638,1000,1000,Win20,Gray,20,102,Decision
1,19,F,03-12-2012,13:49:35,1,27,Door1,R,1002,1020,1000,Gray,Win20,20,1,
1,19,F,03-12-2012,13:49:35,1,28,Door4,R,1464,1100,1000,Gray,Win80,80,4,
1,19,F,03-12-2012,13:49:35,1,29,Door4,R,1050,1180,1000,Gray,Win80,80,104,Catch
1,19,F,03-12-2012,13:49:35,1,30,Door4,L,1358,1220,1000,Win40,Gray,40,401,Catch
1,19,F,03-12-2012,13:49:35,1,31,Door1,R,1509,1240,1000,Gray,Win20,20,201,Decision
1,19,F,03-12-2012,13:49:35,1,32,Door3,R,1623,1300,2000,Gray,Win60,60,403,Decision
1,19,F,03-12-2012,13:49:35,1,33,Door1,L,1508,1320,2000,Win20,Gray,20,102,Decision
1,19,F,03-12-2012,13:49:35,1,34,Door4,L,1757,1400,1000,Win80,Gray,80,403,Decision
1,19,F,03-12-2012,13:49:35,1,35,Door4,L,972,1480,2000,Win80,Gray,80,403,Decision
1,19,F,03-12-2012,13:49:35,1,36,Door3,L,1827,1540,2000,Win60,Gray,60,302,Catch
1,19,F,03-12-2012,13:49:35,1,37,Door4,R,943,1620,1000,Gray,Win80,80,104,Catch
1,19,F,03-12-2012,13:49:35,1,38,Door4,R,1167,1660,1000,Gray,Win40,40,304,Decision
1,19,F,03-12-2012,13:49:35,1,39,Door3,L,1021,1720,2000,Win60,Gray,60,3,
1,19,F,03-12-2012,13:49:35,1,40,Door3,L,2770,1780,2000,Win60,Gray,60,301,Catch
1,19,F,03-12-2012,13:49:35,1,41,Door4,R,1377,1860,2000,Gray,Win80,80,204,Catch
1,19,F,03-12-2012,13:49:35,1,42,Door4,L,1144,1900,2000,Win40,Gray,40,4,
1,19,F,03-12-2012,13:49:35,1,43,Door1,L,1935,1920,1000,Win20,Gray,20,102,Decision
1,19,F,03-12-2012,13:49:35,1,44,Door4,R,1519,1960,2000,Gray,Win40,40,304,Decision
1,19,F,03-12-2012,13:49:35,1,45,Door3,L,1880,2020,1000,Win60,Gray,60,301,Catch
1,19,F,03-12-2012,13:49:35,1,46,Door4,R,1595,2100,1000,Gray,Win80,80,304,Decision
1,19,F,03-12-2012,13:49:35,1,47,Door3,R,1015,2160,1000,Gray,Win60,60,3,
1,19,F,03-12-2012,13:49:35,1,48,Door4,L,1100,2240,1000,Win80,Gray,80,401,Catch
1,19,F,03-12-2012,13:49:35,2,NULL,NULL,NULL,NULL,NULL,NULL,NULL,NULL,NULL,NULL,NULL
1,19,F,03-12-2012,13:49:35,3,1,Door2,L,2620,2240,2000,Win0,Gray,0,2,
1,19,F,03-12-2012,13:49:35,3,2,Door1,L,1416,2260,2000,Win20,Gray,20,102,Decision
1,19,F,03-12-2012,13:49:35,3,3,Door1,L,1317,2280,1000,Win20,Gray,20,102,Decision
1,19,F,03-12-2012,13:49:35,3,4,Door2,R,1831,2280,1000,Gray,Win0,0,2,
1,19,F,03-12-2012,13:49:35,3,5,Door4,R,1298,2360,1000,Gray,Win80,80,304,Decision
1,19,F,03-12-2012,13:49:35,3,6,Door1,L,1411,2380,1000,Win20,Gray,20,102,Decision
1,19,F,03-12-2012,13:49:35,3,7,Door1,L,1176,2400,1000,Win20,Gray,20,102,Decision
1,19,F,03-12-2012,13:49:35,3,8,Door3,R,1247,2460,1000,Gray,Win60,60,103,Catch
1,19,F,03-12-2012,13:49:35,3,9,Door4,L,1219,2500,1000,Win40,Gray,40,402,Catch
1,19,F,03-12-2012,13:49:35,3,10,Door4,R,863,2540,2000,Gray,Win40,40,204,Catch
1,19,F,03-12-2012,13:49:35,3,11,Door3,R,2914,2600,1000,Gray,Win60,60,403,Decision
1,19,F,03-12-2012,13:49:35,3,12,Door4,L,715,2680,2000,Win80,Gray,80,4,
1,19,F,03-12-2012,13:49:35,3,13,Door4,R,1059,2720,2000,Gray,Win40,40,304,Decision
1,19,F,03-12-2012,13:49:35,3,14,Door1,L,1422,2740,2000,Win20,Gray,20,102,Decision
1,19,F,03-12-2012,13:49:35,3,15,Door1,R,1347,2760,2000,Gray,Win20,20,301,Catch
1,19,F,03-12-2012,13:49:35,3,16,Door4,L,1427,2800,2000,Win40,Gray,40,402,Catch
1,19,F,03-12-2012,13:49:35,3,17,Door1,R,959,2820,1000,Gray,Win20,20,201,Decision
1,19,F,03-12-2012,13:49:35,3,18,Door4,R,1526,2900,1000,Gray,Win80,80,304,Decision
1,19,F,03-12-2012,13:49:35,3,19,Door4,R,879,2980,2000,Gray,Win80,80,304,Decision
1,19,F,03-12-2012,13:49:35,3,20,Door4,R,1097,3060,1000,Gray,Win80,80,104,Catch
1,19,F,03-12-2012,13:49:35,3,21,Door3,R,1203,3120,1000,Gray,Win60,60,203,Catch
1,19,F,03-12-2012,13:49:35,3,22,Door3,R,664,3180,1000,Gray,Win60,60,3,
1,19,F,03-12-2012,13:49:35,3,23,Door4,L,1443,3220,1000,Win40,Gray,40,403,Decision
1,19,F,03-12-2012,13:49:35,3,24,Door4,R,918,3300,2000,Gray,Win80,80,104,Catch
1,19,F,03-12-2012,13:49:35,3,25,Door3,R,1959,3360,2000,Gray,Win60,60,403,Decision
1,19,F,03-12-2012,13:49:35,3,26,Door1,R,927,3380,1000,Gray,Win20,20,1,
1,19,F,03-12-2012,13:49:35,3,27,Door3,R,1135,3440,1000,Gray,Win60,60,103,Catch
1,19,F,03-12-2012,13:49:35,3,28,Door3,L,1399,3500,2000,Win60,Gray,60,301,Catch
1,19,F,03-12-2012,13:49:35,3,29,Door1,L,853,3520,1000,Win20,Gray,20,1,
1,19,F,03-12-2012,13:49:35,3,30,Door3,L,1120,3580,2000,Win60,Gray,60,302,Catch
1,19,F,03-12-2012,13:49:35,3,31,Door1,R,1801,3600,1000,Gray,Win20,20,201,Decision
1,19,F,03-12-2012,13:49:35,3,32,Door4,R,1127,3680,1000,Gray,Win80,80,304,Decision
1,19,F,03-12-2012,13:49:35,3,33,Door1,R,1407,3700,1000,Gray,Win20,20,201,Decision
1,19,F,03-12-2012,13:49:35,3,34,Door4,L,1835,3780,2000,Win80,Gray,80,403,Decision
1,19,F,03-12-2012,13:49:35,3,35,Door4,R,1105,3860,1000,Gray,Win80,80,304,Decision
1,19,F,03-12-2012,13:49:35,3,36,Door3,R,1370,3920,1000,Gray,Win60,60,203,Catch
1,19,F,03-12-2012,13:49:35,3,37,Door4,L,1048,3960,1000,Win40,Gray,40,401,Catch
1,19,F,03-12-2012,13:49:35,3,38,Door4,L,980,4040,2000,Win80,Gray,80,401,Catch
1,19,F,03-12-2012,13:49:35,3,39,Door4,R,810,4120,2000,Gray,Win80,80,204,Catch
1,19,F,03-12-2012,13:49:35,3,40,Door4,L,967,4160,2000,Win40,Gray,40,403,Decision
1,19,F,03-12-2012,13:49:35,3,41,Door4,R,895,4240,1000,Gray,Win80,80,4,
1,19,F,03-12-2012,13:49:35,3,42,Door1,R,1167,4260,2000,Gray,Win20,20,201,Decision
1,19,F,03-12-2012,13:49:35,3,43,Door1,R,1038,4280,1000,Gray,Win20,20,201,Decision
1,19,F,03-12-2012,13:49:35,3,44,Door4,L,1834,4360,2000,Win80,Gray,80,403,Decision
1,19,F,03-12-2012,13:49:35,3,45,Door3,L,1438,4420,1000,Win60,Gray,60,302,Catch
1,19,F,03-12-2012,13:49:35,3,46,Door1,L,1107,4440,2000,Win20,Gray,20,102,Decision
1,19,F,03-12-2012,13:49:35,3,47,Door3,L,899,4500,1000,Win60,Gray,60,3,
1,19,F,03-12-2012,13:49:35,3,48,Door1,R,1333,4520,2000,Gray,Win20,20,201,Decision
1,19,F,03-12-2012,13:49:35,4,NULL,NULL,NULL,NULL,NULL,NULL,NULL,NULL,NULL,NULL,NULL
1,19,F,03-12-2012,13:49:35,5,1,Door4,R,2036,4560,2000,Gray,Win40,40,104,Catch
1,19,F,03-12-2012,13:49:35,5,2,Door1,L,2311,4580,2000,Win20,Gray,20,102,Decision
1,19,F,03-12-2012,13:49:35,5,3,Door4,R,1761,4660,2000,Gray,Win80,80,304,Decision
1,19,F,03-12-2012,13:49:35,5,4,Door4,R,1016,4700,1000,Gray,Win40,40,304,Decision
1,19,F,03-12-2012,13:49:35,5,5,Door1,L,1116,4720,1000,Win20,Gray,20,102,Decision
1,19,F,03-12-2012,13:49:35,5,6,Door1,R,1037,4740,1000,Gray,Win20,20,201,Decision
1,19,F,03-12-2012,13:49:35,5,7,Door4,R,969,4780,1000,Gray,Win40,40,204,Catch
1,19,F,03-12-2012,13:49:35,5,8,Door4,L,2160,4820,2000,Win40,Gray,40,401,Catch
1,19,F,03-12-2012,13:49:35,5,9,Door1,R,1840,4840,2000,Gray,Win20,20,201,Decision
1,19,F,03-12-2012,13:49:35,5,10,Door4,R,1291,4880,2000,Gray,Win40,40,304,Decision
1,19,F,03-12-2012,13:49:35,5,11,Door4,L,1765,4960,2000,Win80,Gray,80,403,Decision
1,19,F,03-12-2012,13:49:35,5,12,Door1,R,1123,4980,1000,Gray,Win20,20,201,Decision
1,19,F,03-12-2012,13:49:35,5,13,Door4,R,1508,5020,2000,Gray,Win40,40,204,Catch
1,19,F,03-12-2012,13:49:35,5,14,Door1,R,1006,5040,1000,Gray,Win20,20,201,Decision
1,19,F,03-12-2012,13:49:35,5,15,Door4,L,1428,5080,1000,Win40,Gray,40,402,Catch
1,19,F,03-12-2012,13:49:35,5,16,Door2,R,1303,5120,1000,Gray,Win40,40,2,
1,19,F,03-12-2012,13:49:35,5,17,Door1,R,913,5140,2000,Gray,Win20,20,1,
1,19,F,03-12-2012,13:49:35,5,18,Door2,L,1690,5140,2000,Win0,Gray,0,201,Decision
1,19,F,03-12-2012,13:49:35,5,19,Door3,R,964,5200,1000,Gray,Win60,60,403,Decision
1,19,F,03-12-2012,13:49:35,5,20,Door3,L,1251,5260,1000,Win60,Gray,60,301,Catch
1,19,F,03-12-2012,13:49:35,5,21,Door1,L,1630,5280,1000,Win20,Gray,20,102,Decision
1,19,F,03-12-2012,13:49:35,5,22,Door4,L,1427,5360,1000,Win80,Gray,80,403,Decision
1,19,F,03-12-2012,13:49:35,5,23,Door1,L,831,5380,1000,Win20,Gray,20,1,
1,19,F,03-12-2012,13:49:35,5,24,Door2,L,843,5420,1000,Win40,Gray,40,2,
1,19,F,03-12-2012,13:49:35,5,25,Door3,R,991,5480,1000,Gray,Win60,60,103,Catch
1,19,F,03-12-2012,13:49:35,5,26,Door2,R,1157,5480,1000,Gray,Win0,0,102,Decision
1,19,F,03-12-2012,13:49:35,5,27,Door4,L,1044,5520,2000,Win40,Gray,40,402,Catch
1,19,F,03-12-2012,13:49:35,5,28,Door4,R,904,5600,1000,Gray,Win80,80,104,Catch
1,19,F,03-12-2012,13:49:35,5,29,Door4,L,1137,5640,2000,Win40,Gray,40,401,Catch
1,19,F,03-12-2012,13:49:35,5,30,Door4,R,1442,5720,1000,Gray,Win80,80,304,Decision
1,19,F,03-12-2012,13:49:35,5,31,Door4,R,1045,5760,1000,Gray,Win40,40,304,Decision
1,19,F,03-12-2012,13:49:35,5,32,Door3,L,1505,5820,2000,Win60,Gray,60,301,Catch
1,19,F,03-12-2012,13:49:35,5,33,Door3,R,754,5880,1000,Gray,Win60,60,403,Decision
1,19,F,03-12-2012,13:49:35,5,34,Door1,R,1298,5900,2000,Gray,Win20,20,201,Decision
1,19,F,03-12-2012,13:49:35,5,35,Door3,L,1179,5960,2000,Win60,Gray,60,302,Catch
1,19,F,03-12-2012,13:49:35,5,36,Door3,R,1034,6020,2000,Gray,Win60,60,203,Catch
1,19,F,03-12-2012,13:49:35,5,37,Door3,R,718,6080,1000,Gray,Win60,60,3,
1,19,F,03-12-2012,13:49:35,5,38,Door4,R,838,6120,1000,Gray,Win40,40,4,
1,19,F,03-12-2012,13:49:35,5,39,Door3,L,802,6180,1000,Win60,Gray,60,3,
1,19,F,03-12-2012,13:49:35,5,40,Door4,L,1735,6220,2000,Win40,Gray,40,403,Decision
1,19,F,03-12-2012,13:49:35,5,41,Door3,R,944,6280,2000,Gray,Win60,60,203,Catch
1,19,F,03-12-2012,13:49:35,5,42,Door3,R,983,6340,1000,Gray,Win60,60,103,Catch
1,19,F,03-12-2012,13:49:35,5,43,Door1,L,925,6360,2000,Win20,Gray,20,102,Decision
1,19,F,03-12-2012,13:49:35,5,44,Door4,L,1342,6440,1000,Win80,Gray,80,403,Decision
1,19,F,03-12-2012,13:49:35,5,45,Door4,R,798,6480,2000,Gray,Win40,40,304,Decision
1,19,F,03-12-2012,13:49:35,5,46,Door4,L,684,6560,1000,Win80,Gray,80,4,
1,19,F,03-12-2012,13:49:35,5,47,Door3,L,1350,6620,2000,Win60,Gray,60,302,Catch
1,19,F,03-12-2012,13:49:35,5,48,Door1,L,1309,6640,2000,Win20,Gray,20,102,Decision
1,19,F,03-12-2012,13:49:35,6,NULL,NULL,NULL,NULL,NULL,NULL,NULL,NULL,NULL,NULL,NULL
1,19,F,03-12-2012,13:49:35,7,1,Door3,L,2567,6700,2000,Win60,Gray,60,3,
1,19,F,03-12-2012,13:49:35,7,2,Door4,L,1263,6780,2000,Win80,Gray,80,403,Decision
1,19,F,03-12-2012,13:49:35,7,3,Door3,L,1321,6840,2000,Win60,Gray,60,302,Catch
1,19,F,03-12-2012,13:49:35,7,4,Door1,R,1202,6860,1000,Gray,Win20,20,201,Decision
1,19,F,03-12-2012,13:49:35,7,5,Door4,L,1104,6900,2000,Win40,Gray,40,402,Catch
1,19,F,03-12-2012,13:49:35,7,6,Door4,L,952,6940,1000,Win40,Gray,40,4,
1,19,F,03-12-2012,13:49:35,7,7,Door4,R,1073,7020,2000,Gray,Win80,80,304,Decision
1,19,F,03-12-2012,13:49:35,7,8,Door4,L,1764,7100,2000,Win80,Gray,80,403,Decision
1,19,F,03-12-2012,13:49:35,7,9,Door1,R,962,7120,1000,Gray,Win20,20,201,Decision
1,19,F,03-12-2012,13:49:35,7,10,Door1,L,1512,7140,1000,Win20,Gray,20,102,Decision
1,19,F,03-12-2012,13:49:35,7,11,Door1,L,1129,7160,1000,Win20,Gray,20,102,Decision
1,19,F,03-12-2012,13:49:35,7,12,Door1,R,834,7180,2000,Gray,Win20,20,201,Decision
1,19,F,03-12-2012,13:49:35,7,13,Door4,L,958,7220,1000,Win40,Gray,40,401,Catch
1,19,F,03-12-2012,13:49:35,7,14,Door4,R,893,7300,2000,Gray,Win80,80,204,Catch
1,19,F,03-12-2012,13:49:35,7,15,Door1,L,823,7320,2000,Win20,Gray,20,1,
1,19,F,03-12-2012,13:49:35,7,16,Door3,R,1500,7380,2000,Gray,Win60,60,203,Catch
1,19,F,03-12-2012,13:49:35,7,17,Door4,R,949,7420,2000,Gray,Win40,40,4,
1,19,F,03-12-2012,13:49:35,7,18,Door1,R,1349,7440,2000,Gray,Win20,20,201,Decision
1,19,F,03-12-2012,13:49:35,7,19,Door4,R,1005,7480,1000,Gray,Win40,40,304,Decision
1,19,F,03-12-2012,13:49:35,7,20,Door4,R,882,7560,2000,Gray,Win80,80,304,Decision
1,19,F,03-12-2012,13:49:35,7,21,Door4,L,1181,7640,1000,Win80,Gray,80,401,Catch
1,19,F,03-12-2012,13:49:35,7,22,Door3,R,1290,7700,2000,Gray,Win60,60,103,Catch
1,19,F,03-12-2012,13:49:35,7,23,Door4,L,980,7780,1000,Win80,Gray,80,403,Decision
1,19,F,03-12-2012,13:49:35,7,24,Door1,L,1018,7800,1000,Win20,Gray,20,102,Decision
1,19,F,03-12-2012,13:49:35,7,25,Door3,R,1111,7860,2000,Gray,Win60,60,103,Catch
1,19,F,03-12-2012,13:49:35,7,26,Door4,L,952,7940,1000,Win80,Gray,80,403,Decision
1,19,F,03-12-2012,13:49:35,7,27,Door4,R,687,8020,2000,Gray,Win80,80,204,Catch
1,19,F,03-12-2012,13:49:35,7,28,Door4,R,770,8100,1000,Gray,Win80,80,304,Decision
1,19,F,03-12-2012,13:49:35,7,29,Door4,L,824,8180,1000,Win80,Gray,80,402,Catch
1,19,F,03-12-2012,13:49:35,7,30,Door4,R,869,8220,1000,Gray,Win40,40,304,Decision
1,19,F,03-12-2012,13:49:35,7,31,Door3,L,1079,8280,2000,Win60,Gray,60,302,Catch
1,19,F,03-12-2012,13:49:35,7,32,Door3,R,1090,8340,1000,Gray,Win60,60,203,Catch
1,19,F,03-12-2012,13:49:35,7,33,Door1,L,1068,8360,1000,Win20,Gray,20,102,Decision
1,19,F,03-12-2012,13:49:35,7,34,Door1,R,1166,8380,1000,Gray,Win20,20,201,Decision
1,19,F,03-12-2012,13:49:35,7,35,Door4,R,1189,8460,1000,Gray,Win80,80,104,Catch
1,19,F,03-12-2012,13:49:35,7,36,Door2,L,979,8500,2000,Win40,Gray,40,2,
1,19,F,03-12-2012,13:49:35,7,37,Door4,R,1010,8540,1000,Gray,Win40,40,104,Catch
1,19,F,03-12-2012,13:49:35,7,38,Door4,L,1926,8620,1000,Win80,Gray,80,403,Decision
1,19,F,03-12-2012,13:49:35,7,39,Door1,L,1135,8640,1000,Win20,Gray,20,102,Decision
1,19,F,03-12-2012,13:49:35,7,40,Door3,R,791,8700,1000,Gray,Win60,60,3,
1,19,F,03-12-2012,13:49:35,7,41,Door3,L,1630,8760,1000,Win60,Gray,60,301,Catch
1,19,F,03-12-2012,13:49:35,7,42,Door2,L,1353,8760,2000,Win0,Gray,0,201,Decision
1,19,F,03-12-2012,13:49:35,7,43,Door2,R,882,8760,1000,Gray,Win0,0,2,
1,19,F,03-12-2012,13:49:35,7,44,Door3,R,836,8820,2000,Gray,Win60,60,403,Decision
1,19,F,03-12-2012,13:49:35,7,45,Door3,L,775,8880,1000,Win60,Gray,60,301,Catch
1,19,F,03-12-2012,13:49:35,7,46,Door4,R,638,8960,2000,Gray,Win80,80,304,Decision
1,19,F,03-12-2012,13:49:35,7,47,Door1,L,962,8980,1000,Win20,Gray,20,102,Decision
1,19,F,03-12-2012,13:49:35,7,48,Door1,R,793,9000,2000,Gray,Win20,20,1,
1,19,F,03-12-2012,13:49:35,8,NULL,NULL,NULL,NULL,NULL,NULL,NULL,NULL,NULL,NULL,NULL
1,19,F,03-12-2012,13:49:35,9,1,Door3,R,1921,9060,1000,Gray,Win60,60,103,Catch
1,19,F,03-12-2012,13:49:35,9,2,Door3,R,1241,9120,2000,Gray,Win60,60,203,Catch
1,19,F,03-12-2012,13:49:35,9,3,Door4,R,799,9200,1000,Gray,Win80,80,104,Catch
1,19,F,03-12-2012,13:49:35,9,4,Door4,R,1259,9280,1000,Gray,Win80,80,304,Decision
1,19,F,03-12-2012,13:49:35,9,5,Door3,R,974,9340,1000,Gray,Win60,60,203,Catch
1,19,F,03-12-2012,13:49:35,9,6,Door4,L,1213,9380,2000,Win40,Gray,40,403,Decision
1,19,F,03-12-2012,13:49:35,9,7,Door4,R,778,9460,2000,Gray,Win80,80,4,
1,19,F,03-12-2012,13:49:35,9,8,Door1,L,1543,9480,1000,Win20,Gray,20,102,Decision
1,19,F,03-12-2012,13:49:35,9,9,Door3,L,1303,9540,1000,Win60,Gray,60,302,Catch
1,19,F,03-12-2012,13:49:35,9,10,Door2,R,888,9580,2000,Gray,Win40,40,2,
1,19,F,03-12-2012,13:49:35,9,11,Door4,L,931,9620,1000,Win40,Gray,40,401,Catch
1,19,F,03-12-2012,13:49:35,9,12,Door3,L,1115,9680,1000,Win60,Gray,60,301,Catch
1,19,F,03-12-2012,13:49:35,9,13,Door4,L,1300,9760,2000,Win80,Gray,80,403,Decision
1,19,F,03-12-2012,13:49:35,9,14,Door1,R,1141,9780,1000,Gray,Win20,20,1,
1,19,F,03-12-2012,13:49:35,9,15,Door4,R,829,9820,1000,Gray,Win40,40,204,Catch
1,19,F,03-12-2012,13:49:35,9,16,Door1,R,1315,9840,2000,Gray,Win20,20,201,Decision
1,19,F,03-12-2012,13:49:35,9,17,Door3,L,962,9900,2000,Win60,Gray,60,301,Catch
1,19,F,03-12-2012,13:49:35,9,18,Door4,R,1089,9980,1000,Gray,Win80,80,304,Decision
1,19,F,03-12-2012,13:49:35,9,19,Door4,L,1172,10060,2000,Win80,Gray,80,403,Decision
1,19,F,03-12-2012,13:49:35,9,20,Door4,L,1722,10140,2000,Win80,Gray,80,403,Decision
1,19,F,03-12-2012,13:49:35,9,21,Door1,R,1283,10160,2000,Gray,Win20,20,201,Decision
1,19,F,03-12-2012,13:49:35,9,22,Door1,L,1157,10180,1000,Win20,Gray,20,102,Decision
1,19,F,03-12-2012,13:49:35,9,23,Door1,L,8972,10200,1000,Win20,Gray,20,102,Decision
1,19,F,03-12-2012,13:49:35,9,24,Door1,R,931,10220,2000,Gray,Win20,20,201,Decision
1,19,F,03-12-2012,13:49:35,9,25,Door4,R,844,10260,1000,Gray,Win40,40,104,Catch
1,19,F,03-12-2012,13:49:35,9,26,Door1,R,1215,10280,1000,Gray,Win20,20,201,Decision
1,19,F,03-12-2012,13:49:35,9,27,Door3,R,908,10340,2000,Gray,Win60,60,3,
1,19,F,03-12-2012,13:49:35,9,28,Door1,L,933,10360,2000,Win20,Gray,20,102,Decision
1,19,F,03-12-2012,13:49:35,9,29,Door1,R,1070,10380,1000,Gray,Win20,20,201,Decision
1,19,F,03-12-2012,13:49:35,9,30,Door4,R,769,10460,2000,Gray,Win80,80,304,Decision
1,19,F,03-12-2012,13:49:35,9,31,Door3,L,799,10520,2000,Win60,Gray,60,3,
1,19,F,03-12-2012,13:49:35,9,32,Door4,R,773,10600,1000,Gray,Win80,80,304,Decision
1,19,F,03-12-2012,13:49:35,9,33,Door4,L,2723,10680,2000,Win80,Gray,80,402,Catch
1,19,F,03-12-2012,13:49:35,9,34,Door2,L,2548,10680,1000,Win0,Gray,0,2,
1,19,F,03-12-2012,13:49:35,9,35,Door1,L,2236,10700,2000,Win20,Gray,20,102,Decision
1,19,F,03-12-2012,13:49:35,9,36,Door1,L,2304,10720,1000,Win20,Gray,20,1,
1,19,F,03-12-2012,13:49:35,9,37,Door4,R,985,10800,1000,Gray,Win80,80,204,Catch
1,19,F,03-12-2012,13:49:35,9,38,Door4,R,999,10840,1000,Gray,Win40,40,304,Decision
1,19,F,03-12-2012,13:49:35,9,39,Door4,L,1877,10880,2000,Win40,Gray,40,403,Decision
1,19,F,03-12-2012,13:49:35,9,40,Door4,L,1023,10920,1000,Win40,Gray,40,403,Decision
1,19,F,03-12-2012,13:49:35,9,41,Door3,R,884,10980,1000,Gray,Win60,60,103,Catch
1,19,F,03-12-2012,13:49:35,9,42,Door4,R,838,11060,1000,Gray,Win80,80,304,Decision
1,19,F,03-12-2012,13:49:35,9,43,Door3,L,1217,11120,1000,Win60,Gray,60,302,Catch
1,19,F,03-12-2012,13:49:35,9,44,Door4,L,790,11200,1000,Win80,Gray,80,4,
1,19,F,03-12-2012,13:49:35,9,45,Door4,L,916,11280,1000,Win80,Gray,80,401,Catch
1,19,F,03-12-2012,13:49:35,9,46,Door1,L,1541,11300,1000,Win20,Gray,20,102,Decision
1,19,F,03-12-2012,13:49:35,9,47,Door4,L,918,11340,1000,Win40,Gray,40,402,Catch
1,19,F,03-12-2012,13:49:35,9,48,Door1,R,1550,11360,2000,Gray,Win20,20,201,Decision
1,19,F,03-12-2012,13:49:35,10,NULL,NULL,NULL,NULL,NULL,NULL,NULL,NULL,NULL,NULL,NULL
1,19,F,03-12-2012,13:49:35,11,1,Door3,L,2252,11420,2000,Win60,Gray,60,301,Catch
1,19,F,03-12-2012,13:49:35,11,2,Door1,R,1327,11440,2000,Gray,Win20,20,201,Decision
1,19,F,03-12-2012,13:49:35,11,3,Door1,R,1575,11460,1000,Gray,Win20,20,201,Decision
1,19,F,03-12-2012,13:49:35,11,4,Door1,L,1333,11480,1000,Win20,Gray,20,102,Decision
1,19,F,03-12-2012,13:49:35,11,5,Door3,L,893,11540,2000,Win60,Gray,60,302,Catch
1,19,F,03-12-2012,13:49:35,11,6,Door3,L,751,11600,2000,Win60,Gray,60,302,Catch
1,19,F,03-12-2012,13:49:35,11,7,Door3,R,998,11660,2000,Gray,Win60,60,103,Catch
1,19,F,03-12-2012,13:49:35,11,8,Door4,R,1485,11740,2000,Gray,Win80,80,304,Decision
1,19,F,03-12-2012,13:49:35,11,9,Door4,L,1310,11780,1000,Win40,Gray,40,401,Catch
1,19,F,03-12-2012,13:49:35,11,10,Door1,R,1263,11800,1000,Gray,Win20,20,201,Decision
1,19,F,03-12-2012,13:49:35,11,11,Door1,R,1234,11820,2000,Gray,Win20,20,201,Decision
1,19,F,03-12-2012,13:49:35,11,12,Door4,L,1533,11860,1000,Win40,Gray,40,403,Decision
1,19,F,03-12-2012,13:49:35,11,13,Door3,R,982,11920,2000,Gray,Win60,60,203,Catch
1,19,F,03-12-2012,13:49:35,11,14,Door3,R,1092,11980,2000,Gray,Win60,60,103,Catch
1,19,F,03-12-2012,13:49:35,11,15,Door4,R,1141,12060,1000,Gray,Win80,80,304,Decision
1,19,F,03-12-2012,13:49:35,11,16,Door3,L,1383,12120,2000,Win60,Gray,60,301,Catch
1,19,F,03-12-2012,13:49:35,11,17,Door4,R,1012,12160,1000,Gray,Win40,40,304,Decision
1,19,F,03-12-2012,13:49:35,11,18,Door4,R,1161,12200,1000,Gray,Win40,40,4,
1,19,F,03-12-2012,13:49:35,11,19,Door4,L,1472,12240,2000,Win40,Gray,40,402,Catch
1,19,F,03-12-2012,13:49:35,11,20,Door1,L,1115,12260,2000,Win20,Gray,20,1,
1,19,F,03-12-2012,13:49:35,11,21,Door4,L,1020,12300,1000,Win40,Gray,40,402,Catch
1,19,F,03-12-2012,13:49:35,11,22,Door4,R,1137,12380,2000,Gray,Win80,80,204,Catch
1,19,F,03-12-2012,13:49:35,11,23,Door1,L,1297,12400,2000,Win20,Gray,20,102,Decision
1,19,F,03-12-2012,13:49:35,11,24,Door4,L,1018,12440,2000,Win40,Gray,40,4,
1,19,F,03-12-2012,13:49:35,11,25,Door4,L,1248,12520,2000,Win80,Gray,80,401,Catch
1,19,F,03-12-2012,13:49:35,11,26,Door4,R,1106,12600,2000,Gray,Win80,80,104,Catch
1,19,F,03-12-2012,13:49:35,11,27,Door1,L,1203,12620,1000,Win20,Gray,20,102,Decision
1,19,F,03-12-2012,13:49:35,11,28,Door4,R,969,12660,1000,Gray,Win40,40,304,Decision
1,19,F,03-12-2012,13:49:35,11,29,Door1,R,1768,12680,1000,Gray,Win20,20,201,Decision
1,19,F,03-12-2012,13:49:35,11,30,Door4,R,864,12760,2000,Gray,Win80,80,204,Catch
1,19,F,03-12-2012,13:49:35,11,31,Door4,R,890,12800,2000,Gray,Win40,40,304,Decision
1,19,F,03-12-2012,13:49:35,11,32,Door3,L,924,12860,1000,Win60,Gray,60,3,
1,19,F,03-12-2012,13:49:35,11,33,Door1,L,1852,12880,2000,Win20,Gray,20,102,Decision
1,19,F,03-12-2012,13:49:35,11,34,Door2,R,776,12920,2000,Gray,Win40,40,2,
1,19,F,03-12-2012,13:49:35,11,35,Door2,L,1222,12960,2000,Win40,Gray,40,201,Decision
1,19,F,03-12-2012,13:49:35,11,36,Door3,R,1267,13020,1000,Gray,Win60,60,203,Catch
1,19,F,03-12-2012,13:49:35,11,37,Door4,L,1287,13060,2000,Win40,Gray,40,403,Decision
1,19,F,03-12-2012,13:49:35,11,38,Door3,R,696,13120,1000,Gray,Win60,60,3,
1,19,F,03-12-2012,13:49:35,11,39,Door2,R,3105,13120,2000,Gray,Win0,0,102,Decision
1,19,F,03-12-2012,13:49:35,11,40,Door4,R,795,13160,2000,Gray,Win40,40,304,Decision
1,19,F,03-12-2012,13:49:35,11,41,Door2,L,1305,13160,2000,Win0,Gray,0,2,
1,19,F,03-12-2012,13:49:35,11,42,Door4,L,1338,13200,1000,Win40,Gray,40,403,Decision
1,19,F,03-12-2012,13:49:35,11,43,Door4,L,794,13280,1000,Win80,Gray,80,403,Decision
1,19,F,03-12-2012,13:49:35,11,44,Door1,R,1648,13300,2000,Gray,Win20,20,1,
1,19,F,03-12-2012,13:49:35,11,45,Door4,L,1652,13380,2000,Win80,Gray,80,403,Decision
1,19,F,03-12-2012,13:49:35,11,46,Door1,L,2566,13400,1000,Win20,Gray,20,102,Decision
1,19,F,03-12-2012,13:49:35,11,47,Door4,R,8829,13480,2000,Gray,Win80,80,104,Catch
1,19,F,03-12-2012,13:49:35,11,48,Door4,L,1074,13560,1000,Win80,Gray,80,403,Decision
11,23,M,03-12-2012,13:57:19,1,1,Door3,L,3301,60,2000,Win60,Gray,60,304,Decision
11,23,M,03-12-2012,13:57:19,1,2,Door1,R,3600,80,2000,Gray,Win20,20,401,Catch
11,23,M,03-12-2012,13:57:19,1,3,Door3,R,3458,140,1000,Gray,Win60,60,403,Decision
11,23,M,03-12-2012,13:57:19,1,4,Door2,L,1975,180,2000,Win40,Gray,40,201,Decision
11,23,M,03-12-2012,13:57:19,1,5,Door3,L,1814,240,1000,Win60,Gray,60,3,
11,23,M,03-12-2012,13:57:19,1,6,Door2,R,3963,280,1000,Gray,Win40,40,102,Decision
11,23,M,03-12-2012,13:57:19,1,7,Door4,R,1882,320,1000,Gray,Win40,40,204,Catch
11,23,M,03-12-2012,13:57:19,1,8,Door1,L,2204,340,1000,Win20,Gray,20,102,Decision
11,23,M,03-12-2012,13:57:19,1,9,Door1,L,2930,360,1000,Win20,Gray,20,1,
11,23,M,03-12-2012,13:57:19,1,10,Door2,R,1290,360,2000,Gray,Win0,0,102,Decision
11,23,M,03-12-2012,13:57:19,1,11,Door3,R,1956,420,2000,Gray,Win60,60,103,Catch
11,23,M,03-12-2012,13:57:19,1,12,Door3,R,2259,480,1000,Gray,Win60,60,103,Catch
11,23,M,03-12-2012,13:57:19,1,13,Door2,L,2822,520,2000,Win40,Gray,40,201,Decision
11,23,M,03-12-2012,13:57:19,1,14,Door3,L,1307,580,2000,Win60,Gray,60,304,Decision
11,23,M,03-12-2012,13:57:19,1,15,Door3,R,1180,640,2000,Gray,Win60,60,403,Decision
11,23,M,03-12-2012,13:57:19,1,16,Door3,L,1131,700,1000,Win60,Gray,60,301,Catch
11,23,M,03-12-2012,13:57:19,1,17,Door3,R,850,760,1000,Gray,Win60,60,403,Decision
11,23,M,03-12-2012,13:57:19,1,18,Door2,R,2775,760,2000,Gray,Win0,0,102,Decision
11,23,M,03-12-2012,13:57:19,1,19,Door3,L,1484,820,2000,Win60,Gray,60,304,Decision
11,23,M,03-12-2012,13:57:19,1,20,Door4,L,2479,900,1000,Win80,Gray,80,402,Catch
11,23,M,03-12-2012,13:57:19,1,21,Door1,R,2241,920,1000,Gray,Win20,20,201,Decision
11,23,M,03-12-2012,13:57:19,1,22,Door3,R,1453,980,1000,Gray,Win60,60,203,Catch
11,23,M,03-12-2012,13:57:19,1,23,Door4,L,2449,1020,1000,Win40,Gray,40,402,Catch
11,23,M,03-12-2012,13:57:19,1,24,Door4,R,3972,1060,2000,Gray,Win40,40,104,Catch
11,23,M,03-12-2012,13:57:19,1,25,Door2,L,1243,1100,2000,Win40,Gray,40,201,Decision
11,23,M,03-12-2012,13:57:19,1,26,Door4,R,2423,1140,1000,Gray,Win40,40,204,Catch
11,23,M,03-12-2012,13:57:19,1,27,Door1,L,3587,1160,1000,Win20,Gray,20,102,Decision
11,23,M,03-12-2012,13:57:19,1,28,Door3,R,882,1220,1000,Gray,Win60,60,403,Decision
11,23,M,03-12-2012,13:57:19,1,29,Door3,R,620,1280,1000,Gray,Win60,60,403,Decision
11,23,M,03-12-2012,13:57:19,1,30,Door3,L,1048,1340,2000,Win60,Gray,60,304,Decision
11,23,M,03-12-2012,13:57:19,1,31,Door3,L,971,1400,1000,Win60,Gray,60,302,Catch
11,23,M,03-12-2012,13:57:19,1,32,Door4,L,1163,1440,1000,Win40,Gray,40,4,
11,23,M,03-12-2012,13:57:19,1,33,Door2,L,2625,1480,2000,Win40,Gray,40,201,Decision
11,23,M,03-12-2012,13:57:19,1,34,Door1,L,2734,1500,1000,Win20,Gray,20,102,Decision
11,23,M,03-12-2012,13:57:19,1,35,Door4,L,2022,1540,1000,Win40,Gray,40,401,Catch
11,23,M,03-12-2012,13:57:19,1,36,Door1,R,1723,1560,1000,Gray,Win20,20,201,Decision
11,23,M,03-12-2012,13:57:19,1,37,Door4,R,988,1640,2000,Gray,Win80,80,4,
11,23,M,03-12-2012,13:57:19,1,38,Door3,R,914,1700,2000,Gray,Win60,60,203,Catch
11,23,M,03-12-2012,13:57:19,1,39,Door1,R,1155,1720,1000,Gray,Win20,20,1,
11,23,M,03-12-2012,13:57:19,1,40,Door3,R,1050,1780,1000,Gray,Win60,60,403,Decision
11,23,M,03-12-2012,13:57:19,1,41,Door3,L,1893,1840,2000,Win60,Gray,60,304,Decision
11,23,M,03-12-2012,13:57:19,1,42,Door2,R,975,1880,2000,Gray,Win40,40,2,
11,23,M,03-12-2012,13:57:19,1,43,Door3,L,1077,1940,2000,Win60,Gray,60,301,Catch
11,23,M,03-12-2012,13:57:19,1,44,Door3,L,680,2000,1000,Win60,Gray,60,304,Decision
11,23,M,03-12-2012,13:57:19,1,45,Door4,R,1930,2040,1000,Gray,Win40,40,104,Catch
11,23,M,03-12-2012,13:57:19,1,46,Door2,L,913,2040,2000,Win0,Gray,0,2,
11,23,M,03-12-2012,13:57:19,1,47,Door3,R,858,2100,2000,Gray,Win60,60,3,
11,23,M,03-12-2012,13:57:19,1,48,Door2,R,678,2100,1000,Gray,Win0,0,302,Catch
11,23,M,03-12-2012,13:57:19,2,NULL,NULL,NULL,NULL,NULL,NULL,NULL,NULL,NULL,NULL,NULL
11,23,M,03-12-2012,13:57:19,3,1,Door2,L,4524,2140,1000,Win40,Gray,40,201,Decision
11,23,M,03-12-2012,13:57:19,3,2,Door4,R,1733,2220,1000,Gray,Win80,80,4,
11,23,M,03-12-2012,13:57:19,3,3,Door2,R,2253,2260,1000,Gray,Win40,40,102,Decision
11,23,M,03-12-2012,13:57:19,3,4,Door2,R,664,2300,1000,Gray,Win40,40,2,
11,23,M,03-12-2012,13:57:19,3,5,Door3,L,818,2360,2000,Win60,Gray,60,301,Catch
11,23,M,03-12-2012,13:57:19,3,6,Door4,L,1463,2400,1000,Win40,Gray,40,401,Catch
11,23,M,03-12-2012,13:57:19,3,7,Door2,L,898,2440,1000,Win40,Gray,40,2,
11,23,M,03-12-2012,13:57:19,3,8,Door3,R,947,2500,2000,Gray,Win60,60,3,
11,23,M,03-12-2012,13:57:19,3,9,Door2,L,1291,2500,2000,Win0,Gray,0,201,Decision
11,23,M,03-12-2012,13:57:19,3,10,Door1,L,1101,2520,1000,Win20,Gray,20,102,Decision
11,23,M,03-12-2012,13:57:19,3,11,Door1,R,1422,2540,2000,Gray,Win20,20,201,Decision
11,23,M,03-12-2012,13:57:19,3,12,Door4,R,2091,2580,2000,Gray,Win40,40,204,Catch
11,23,M,03-12-2012,13:57:19,3,13,Door1,R,1173,2600,1000,Gray,Win20,20,201,Decision
11,23,M,03-12-2012,13:57:19,3,14,Door1,R,788,2620,1000,Gray,Win20,20,1,
11,23,M,03-12-2012,13:57:19,3,15,Door1,R,2698,2640,1000,Gray,Win20,20,201,Decision
11,23,M,03-12-2012,13:57:19,3,16,Door4,L,4836,2720,1000,Win80,Gray,80,402,Catch
11,23,M,03-12-2012,13:57:19,3,17,Door3,L,3807,2780,1000,Win60,Gray,60,304,Decision
11,23,M,03-12-2012,13:57:19,3,18,Door3,L,1334,2840,2000,Win60,Gray,60,302,Catch
11,23,M,03-12-2012,13:57:19,3,19,Door3,L,661,2900,2000,Win60,Gray,60,3,
11,23,M,03-12-2012,13:57:19,3,20,Door1,L,3600,2920,2000,Win20,Gray,20,102,Decision
11,23,M,03-12-2012,13:57:19,3,21,Door3,L,789,2980,2000,Win60,Gray,60,304,Decision
11,23,M,03-12-2012,13:57:19,3,22,Door4,L,2411,3020,1000,Win40,Gray,40,403,Decision
11,23,M,03-12-2012,13:57:19,3,23,Door3,R,2656,3080,2000,Gray,Win60,60,403,Decision
11,23,M,03-12-2012,13:57:19,3,24,Door4,R,2853,3120,2000,Gray,Win40,40,104,Catch
11,23,M,03-12-2012,13:57:19,3,25,Door1,L,4655,3140,2000,Win20,Gray,20,102,Decision
11,23,M,03-12-2012,13:57:19,3,26,Door3,L,739,3200,2000,Win60,Gray,60,304,Decision
11,23,M,03-12-2012,13:57:19,3,27,Door1,R,4891,3220,1000,Gray,Win20,20,201,Decision
11,23,M,03-12-2012,13:57:19,3,28,Door3,R,2837,3280,2000,Gray,Win60,60,403,Decision
11,23,M,03-12-2012,13:57:19,3,29,Door4,L,1129,3320,2000,Win40,Gray,40,4,
11,23,M,03-12-2012,13:57:19,3,30,Door2,R,2737,3360,2000,Gray,Win40,40,402,Catch
11,23,M,03-12-2012,13:57:19,3,31,Door2,R,2722,3360,2000,Gray,Win0,0,102,Decision
11,23,M,03-12-2012,13:57:19,3,32,Door3,L,1282,3420,2000,Win60,Gray,60,304,Decision
11,23,M,03-12-2012,13:57:19,3,33,Door3,R,636,3480,1000,Gray,Win60,60,403,Decision
11,23,M,03-12-2012,13:57:19,3,34,Door3,R,1256,3540,2000,Gray,Win60,60,103,Catch
11,23,M,03-12-2012,13:57:19,3,35,Door4,L,2588,3580,1000,Win40,Gray,40,401,Catch
11,23,M,03-12-2012,13:57:19,3,36,Door3,L,818,3640,1000,Win60,Gray,60,304,Decision
11,23,M,03-12-2012,13:57:19,3,37,Door3,R,751,3700,1000,Gray,Win60,60,103,Catch
11,23,M,03-12-2012,13:57:19,3,38,Door4,R,1662,3740,2000,Gray,Win40,40,104,Catch
11,23,M,03-12-2012,13:57:19,3,39,Door3,R,1049,3800,1000,Gray,Win60,60,403,Decision
11,23,M,03-12-2012,13:57:19,3,40,Door3,L,612,3860,1000,Win60,Gray,60,302,Catch
11,23,M,03-12-2012,13:57:19,3,41,Door3,R,617,3920,1000,Gray,Win60,60,203,Catch
11,23,M,03-12-2012,13:57:19,3,42,Door4,R,2454,4000,2000,Gray,Win80,80,204,Catch
11,23,M,03-12-2012,13:57:19,3,43,Door3,L,720,4060,2000,Win60,Gray,60,304,Decision
11,23,M,03-12-2012,13:57:19,3,44,Door3,R,1178,4120,2000,Gray,Win60,60,203,Catch
11,23,M,03-12-2012,13:57:19,3,45,Door3,R,993,4180,2000,Gray,Win60,60,403,Decision
11,23,M,03-12-2012,13:57:19,3,46,Door3,L,551,4240,1000,Win60,Gray,60,301,Catch
11,23,M,03-12-2012,13:57:19,3,47,Door1,L,1309,4260,2000,Win20,Gray,20,1,
11,23,M,03-12-2012,13:57:19,3,48,Door2,R,1318,4300,1000,Gray,Win40,40,102,Decision
11,23,M,03-12-2012,13:57:19,4,NULL,NULL,NULL,NULL,NULL,NULL,NULL,NULL,NULL,NULL,NULL
11,23,M,03-12-2012,13:57:19,5,1,Door4,R,3874,4380,2000,Gray,Win80,80,204,Catch
11,23,M,03-12-2012,13:57:19,5,2,Door1,R,1532,4400,2000,Gray,Win20,20,201,Decision
11,23,M,03-12-2012,13:57:19,5,3,Door3,L,692,4460,2000,Win60,Gray,60,304,Decision
11,23,M,03-12-2012,13:57:19,5,4,Door3,R,1342,4520,2000,Gray,Win60,60,403,Decision
11,23,M,03-12-2012,13:57:19,5,5,Door4,L,854,4600,1000,Win80,Gray,80,4,
11,23,M,03-12-2012,13:57:19,5,6,Door4,R,762,4640,1000,Gray,Win40,40,204,Catch
11,23,M,03-12-2012,13:57:19,5,7,Door4,L,785,4720,1000,Win80,Gray,80,403,Decision
11,23,M,03-12-2012,13:57:19,5,8,Door3,L,935,4780,1000,Win60,Gray,60,301,Catch
11,23,M,03-12-2012,13:57:19,5,9,Door3,R,847,4840,2000,Gray,Win60,60,103,Catch
11,23,M,03-12-2012,13:57:19,5,10,Door2,R,1946,4880,2000,Gray,Win40,40,102,Decision
11,23,M,03-12-2012,13:57:19,5,11,Door1,L,1121,4900,1000,Win20,Gray,20,102,Decision
11,23,M,03-12-2012,13:57:19,5,12,Door2,R,850,4900,1000,Gray,Win0,0,102,Decision
11,23,M,03-12-2012,13:57:19,5,13,Door3,L,757,4960,2000,Win60,Gray,60,301,Catch
11,23,M,03-12-2012,13:57:19,5,14,Door2,R,1765,4960,2000,Gray,Win0,0,102,Decision
11,23,M,03-12-2012,13:57:19,5,15,Door3,L,531,5020,1000,Win60,Gray,60,304,Decision
11,23,M,03-12-2012,13:57:19,5,16,Door3,R,1123,5080,2000,Gray,Win60,60,403,Decision
11,23,M,03-12-2012,13:57:19,5,17,Door4,R,1140,5120,1000,Gray,Win40,40,104,Catch
11,23,M,03-12-2012,13:57:19,5,18,Door2,R,1012,5120,1000,Gray,Win0,0,102,Decision
11,23,M,03-12-2012,13:57:19,5,19,Door4,R,609,5200,1000,Gray,Win80,80,4,
11,23,M,03-12-2012,13:57:19,5,20,Door2,R,887,5240,2000,Gray,Win40,40,402,Catch
11,23,M,03-12-2012,13:57:19,5,21,Door4,R,1337,5320,1000,Gray,Win80,80,104,Catch
11,23,M,03-12-2012,13:57:19,5,22,Door3,L,808,5380,1000,Win60,Gray,60,302,Catch
11,23,M,03-12-2012,13:57:19,5,23,Door3,R,782,5440,2000,Gray,Win60,60,3,
11,23,M,03-12-2012,13:57:19,5,24,Door1,R,1429,5460,2000,Gray,Win20,20,201,Decision
11,23,M,03-12-2012,13:57:19,5,25,Door3,L,808,5520,2000,Win60,Gray,60,304,Decision
11,23,M,03-12-2012,13:57:19,5,26,Door3,R,830,5580,1000,Gray,Win60,60,203,Catch
11,23,M,03-12-2012,13:57:19,5,27,Door3,L,785,5640,2000,Win60,Gray,60,304,Decision
11,23,M,03-12-2012,13:57:19,5,28,Door3,R,607,5700,2000,Gray,Win60,60,403,Decision
11,23,M,03-12-2012,13:57:19,5,29,Door3,R,574,5760,2000,Gray,Win60,60,203,Catch
11,23,M,03-12-2012,13:57:19,5,30,Door1,L,605,5780,2000,Win20,Gray,20,1,
11,23,M,03-12-2012,13:57:19,5,31,Door3,R,609,5840,2000,Gray,Win60,60,103,Catch
11,23,M,03-12-2012,13:57:19,5,32,Door2,R,535,5880,2000,Gray,Win40,40,2,
11,23,M,03-12-2012,13:57:19,5,33,Door3,R,487,5940,2000,Gray,Win60,60,403,Decision
11,23,M,03-12-2012,13:57:19,5,34,Door2,R,641,5940,2000,Gray,Win0,0,402,Catch
11,23,M,03-12-2012,13:57:19,5,35,Door1,R,581,5960,1000,Gray,Win20,20,201,Decision
11,23,M,03-12-2012,13:57:19,5,36,Door3,L,731,6020,2000,Win60,Gray,60,3,
11,23,M,03-12-2012,13:57:19,5,37,Door3,L,1355,6080,1000,Win60,Gray,60,304,Decision
11,23,M,03-12-2012,13:57:19,5,38,Door3,R,1019,6140,2000,Gray,Win60,60,403,Decision
11,23,M,03-12-2012,13:57:19,5,39,Door4,L,1776,6180,1000,Win40,Gray,40,401,Catch
11,23,M,03-12-2012,13:57:19,5,40,Door2,R,1222,6220,1000,Gray,Win40,40,102,Decision
11,23,M,03-12-2012,13:57:19,5,41,Door2,L,562,6260,1000,Win40,Gray,40,2,
11,23,M,03-12-2012,13:57:19,5,42,Door2,L,697,6260,1000,Win0,Gray,0,201,Decision
11,23,M,03-12-2012,13:57:19,5,43,Door3,L,1099,6320,1000,Win60,Gray,60,304,Decision
11,23,M,03-12-2012,13:57:19,5,44,Door2,L,730,6320,2000,Win0,Gray,0,201,Decision
11,23,M,03-12-2012,13:57:19,5,45,Door1,R,572,6340,2000,Gray,Win20,20,1,
11,23,M,03-12-2012,13:57:19,5,46,Door3,L,771,6400,2000,Win60,Gray,60,302,Catch
11,23,M,03-12-2012,13:57:19,5,47,Door1,R,947,6420,2000,Gray,Win20,20,401,Catch
11,23,M,03-12-2012,13:57:19,5,48,Door2,L,658,6460,1000,Win40,Gray,40,201,Decision
11,23,M,03-12-2012,13:57:19,6,NULL,NULL,NULL,NULL,NULL,NULL,NULL,NULL,NULL,NULL,NULL
11,23,M,03-12-2012,13:57:19,7,1,Door2,L,1654,6460,2000,Win0,Gray,0,201,Decision
11,23,M,03-12-2012,13:57:19,7,2,Door4,R,1416,6500,1000,Gray,Win40,40,4,
11,23,M,03-12-2012,13:57:19,7,3,Door2,R,797,6500,2000,Gray,Win0,0,102,Decision
11,23,M,03-12-2012,13:57:19,7,4,Door3,L,1347,6560,1000,Win60,Gray,60,302,Catch
11,23,M,03-12-2012,13:57:19,7,5,Door3,L,570,6620,1000,Win60,Gray,60,304,Decision
11,23,M,03-12-2012,13:57:19,7,6,Door3,R,673,6680,2000,Gray,Win60,60,103,Catch
11,23,M,03-12-2012,13:57:19,7,7,Door2,R,772,6680,1000,Gray,Win0,0,402,Catch
11,23,M,03-12-2012,13:57:19,7,8,Door3,R,1082,6740,1000,Gray,Win60,60,403,Decision
11,23,M,03-12-2012,13:57:19,7,9,Door2,R,692,6740,1000,Gray,Win0,0,102,Decision
11,23,M,03-12-2012,13:57:19,7,10,Door3,R,503,6800,1000,Gray,Win60,60,3,
11,23,M,03-12-2012,13:57:19,7,11,Door3,L,695,6860,2000,Win60,Gray,60,301,Catch
11,23,M,03-12-2012,13:57:19,7,12,Door4,L,681,6940,2000,Win80,Gray,80,4,
11,23,M,03-12-2012,13:57:19,7,13,Door4,R,948,7020,1000,Gray,Win80,80,104,Catch
11,23,M,03-12-2012,13:57:19,7,14,Door1,R,1306,7040,1000,Gray,Win20,20,1,
11,23,M,03-12-2012,13:57:19,7,15,Door3,R,956,7100,2000,Gray,Win60,60,103,Catch
11,23,M,03-12-2012,13:57:19,7,16,Door3,L,755,7160,2000,Win60,Gray,60,304,Decision
11,23,M,03-12-2012,13:57:19,7,17,Door3,R,1587,7220,1000,Gray,Win60,60,403,Decision
11,23,M,03-12-2012,13:57:19,7,18,Door2,L,793,7220,1000,Win0,Gray,0,2,
11,23,M,03-12-2012,13:57:19,7,19,Door3,L,1551,7280,1000,Win60,Gray,60,301,Catch
11,23,M,03-12-2012,13:57:19,7,20,Door3,L,854,7340,2000,Win60,Gray,60,304,Decision
11,23,M,03-12-2012,13:57:19,7,21,Door1,R,1163,7360,2000,Gray,Win20,20,201,Decision
11,23,M,03-12-2012,13:57:19,7,22,Door3,L,785,7420,2000,Win60,Gray,60,304,Decision
11,23,M,03-12-2012,13:57:19,7,23,Door2,R,711,7420,1000,Gray,Win0,0,102,Decision
11,23,M,03-12-2012,13:57:19,7,24,Door2,R,2360,7460,2000,Gray,Win40,40,402,Catch
11,23,M,03-12-2012,13:57:19,7,25,Door1,L,1277,7480,2000,Win20,Gray,20,102,Decision
11,23,M,03-12-2012,13:57:19,7,26,Door2,R,625,7520,1000,Gray,Win40,40,102,Decision
11,23,M,03-12-2012,13:57:19,7,27,Door2,R,780,7520,2000,Gray,Win0,0,102,Decision
11,23,M,03-12-2012,13:57:19,7,28,Door3,R,611,7580,2000,Gray,Win60,60,403,Decision
11,23,M,03-12-2012,13:57:19,7,29,Door1,R,1383,7600,1000,Gray,Win20,20,201,Decision
11,23,M,03-12-2012,13:57:19,7,30,Door4,R,2125,7680,2000,Gray,Win80,80,104,Catch
11,23,M,03-12-2012,13:57:19,7,31,Door2,R,783,7680,1000,Gray,Win0,0,2,
11,23,M,03-12-2012,13:57:19,7,32,Door3,R,621,7740,1000,Gray,Win60,60,203,Catch
11,23,M,03-12-2012,13:57:19,7,33,Door3,L,913,7800,2000,Win60,Gray,60,304,Decision
11,23,M,03-12-2012,13:57:19,7,34,Door2,L,810,7800,2000,Win0,Gray,0,201,Decision
11,23,M,03-12-2012,13:57:19,7,35,Door3,R,999,7860,2000,Gray,Win60,60,403,Decision
11,23,M,03-12-2012,13:57:19,7,36,Door4,L,884,7940,1000,Win80,Gray,80,401,Catch
11,23,M,03-12-2012,13:57:19,7,37,Door3,L,838,8000,2000,Win60,Gray,60,302,Catch
11,23,M,03-12-2012,13:57:19,7,38,Door3,R,675,8060,1000,Gray,Win60,60,403,Decision
11,23,M,03-12-2012,13:57:19,7,39,Door1,R,981,8080,1000,Gray,Win20,20,201,Decision
11,23,M,03-12-2012,13:57:19,7,40,Door2,L,1476,8120,1000,Win40,Gray,40,204,Catch
11,23,M,03-12-2012,13:57:19,7,41,Door2,L,934,8120,2000,Win0,Gray,0,204,Catch
11,23,M,03-12-2012,13:57:19,7,42,Door3,R,558,8180,2000,Gray,Win60,60,403,Decision
11,23,M,03-12-2012,13:57:19,7,43,Door1,R,574,8200,1000,Gray,Win20,20,401,Catch
11,23,M,03-12-2012,13:57:19,7,44,Door2,L,1044,8240,2000,Win40,Gray,40,201,Decision
11,23,M,03-12-2012,13:57:19,7,45,Door3,L,728,8300,2000,Win60,Gray,60,3,
11,23,M,03-12-2012,13:57:19,7,46,Door3,R,784,8360,2000,Gray,Win60,60,203,Catch
11,23,M,03-12-2012,13:57:19,7,47,Door1,L,582,8380,2000,Win20,Gray,20,1,
11,23,M,03-12-2012,13:57:19,7,48,Door3,L,612,8440,1000,Win60,Gray,60,304,Decision
11,23,M,03-12-2012,13:57:19,8,NULL,NULL,NULL,NULL,NULL,NULL,NULL,NULL,NULL,NULL,NULL
11,23,M,03-12-2012,13:57:19,9,1,Door2,L,3683,8480,2000,Win40,Gray,40,201,Decision
11,23,M,03-12-2012,13:57:19,9,2,Door3,L,620,8540,2000,Win60,Gray,60,304,Decision
11,23,M,03-12-2012,13:57:19,9,3,Door2,R,633,8540,2000,Gray,Win0,0,102,Decision
11,23,M,03-12-2012,13:57:19,9,4,Door3,R,549,8600,1000,Gray,Win60,60,203,Catch
11,23,M,03-12-2012,13:57:19,9,5,Door2,L,948,8600,1000,Win0,Gray,0,2,
11,23,M,03-12-2012,13:57:19,9,6,Door1,R,764,8620,1000,Gray,Win20,20,401,Catch
11,23,M,03-12-2012,13:57:19,9,7,Door1,L,930,8640,1000,Win20,Gray,20,104,Catch
11,23,M,03-12-2012,13:57:19,9,8,Door3,R,579,8700,2000,Gray,Win60,60,103,Catch
11,23,M,03-12-2012,13:57:19,9,9,Door3,R,537,8760,1000,Gray,Win60,60,103,Catch
11,23,M,03-12-2012,13:57:19,9,10,Door2,R,1440,8800,2000,Gray,Win40,40,102,Decision
11,23,M,03-12-2012,13:57:19,9,11,Door4,L,1246,8840,1000,Win40,Gray,40,4,
11,23,M,03-12-2012,13:57:19,9,12,Door3,R,1297,8900,1000,Gray,Win60,60,403,Decision
11,23,M,03-12-2012,13:57:19,9,13,Door3,R,2218,8960,1000,Gray,Win60,60,403,Decision
11,23,M,03-12-2012,13:57:19,9,14,Door2,L,1343,8960,1000,Win0,Gray,0,201,Decision
11,23,M,03-12-2012,13:57:19,9,15,Door3,L,1095,9020,1000,Win60,Gray,60,3,
11,23,M,03-12-2012,13:57:19,9,16,Door3,L,808,9080,2000,Win60,Gray,60,304,Decision
11,23,M,03-12-2012,13:57:19,9,17,Door3,L,725,9140,1000,Win60,Gray,60,301,Catch
11,23,M,03-12-2012,13:57:19,9,18,Door2,R,623,9180,1000,Gray,Win40,40,102,Decision
11,23,M,03-12-2012,13:57:19,9,19,Door3,L,803,9240,1000,Win60,Gray,60,304,Decision
11,23,M,03-12-2012,13:57:19,9,20,Door3,L,617,9300,2000,Win60,Gray,60,304,Decision
11,23,M,03-12-2012,13:57:19,9,21,Door3,R,877,9360,2000,Gray,Win60,60,403,Decision
11,23,M,03-12-2012,13:57:19,9,22,Door2,R,799,9400,1000,Gray,Win40,40,402,Catch
11,23,M,03-12-2012,13:57:19,9,23,Door3,R,533,9460,1000,Gray,Win60,60,403,Decision
11,23,M,03-12-2012,13:57:19,9,24,Door2,R,541,9460,2000,Gray,Win0,0,2,
11,23,M,03-12-2012,13:57:19,9,25,Door3,L,604,9520,2000,Win60,Gray,60,302,Catch
11,23,M,03-12-2012,13:57:19,9,26,Door3,R,714,9580,1000,Gray,Win60,60,403,Decision
11,23,M,03-12-2012,13:57:19,9,27,Door1,R,578,9600,1000,Gray,Win20,20,1,
11,23,M,03-12-2012,13:57:19,9,28,Door3,L,777,9660,2000,Win60,Gray,60,304,Decision
11,23,M,03-12-2012,13:57:19,9,29,Door3,L,711,9720,1000,Win60,Gray,60,301,Catch
11,23,M,03-12-2012,13:57:19,9,30,Door4,R,1727,9760,1000,Gray,Win40,40,204,Catch
11,23,M,03-12-2012,13:57:19,9,31,Door2,L,1088,9760,2000,Win0,Gray,0,201,Decision
11,23,M,03-12-2012,13:57:19,9,32,Door2,L,1002,9800,1000,Win40,Gray,40,201,Decision
11,23,M,03-12-2012,13:57:19,9,33,Door2,R,679,9800,1000,Gray,Win0,0,102,Decision
11,23,M,03-12-2012,13:57:19,9,34,Door3,R,681,9860,2000,Gray,Win60,60,3,
11,23,M,03-12-2012,13:57:19,9,35,Door2,L,1003,9860,2000,Win0,Gray,0,201,Decision
11,23,M,03-12-2012,13:57:19,9,36,Door1,L,1081,9880,2000,Win20,Gray,20,102,Decision
11,23,M,03-12-2012,13:57:19,9,37,Door4,R,731,9960,2000,Gray,Win80,80,104,Catch
11,23,M,03-12-2012,13:57:19,9,38,Door3,L,835,10020,2000,Win60,Gray,60,304,Decision
11,23,M,03-12-2012,13:57:19,9,39,Door3,R,679,10080,1000,Gray,Win60,60,203,Catch
11,23,M,03-12-2012,13:57:19,9,40,Door1,R,993,10100,2000,Gray,Win20,20,401,Catch
11,23,M,03-12-2012,13:57:19,9,41,Door1,L,911,10120,2000,Win20,Gray,20,1,
11,23,M,03-12-2012,13:57:19,9,42,Door1,R,840,10140,2000,Gray,Win20,20,201,Decision
11,23,M,03-12-2012,13:57:19,9,43,Door4,R,731,10180,2000,Gray,Win40,40,4,
11,23,M,03-12-2012,13:57:19,9,44,Door2,L,851,10220,2000,Win40,Gray,40,204,Catch
11,23,M,03-12-2012,13:57:19,9,45,Door2,R,855,10220,2000,Gray,Win0,0,102,Decision
11,23,M,03-12-2012,13:57:19,9,46,Door3,R,642,10280,1000,Gray,Win60,60,403,Decision
11,23,M,03-12-2012,13:57:19,9,47,Door3,L,790,10340,2000,Win60,Gray,60,302,Catch
11,23,M,03-12-2012,13:57:19,9,48,Door2,R,653,10380,1000,Gray,Win40,40,402,Catch
11,23,M,03-12-2012,13:57:19,10,NULL,NULL,NULL,NULL,NULL,NULL,NULL,NULL,NULL,NULL,NULL
11,23,M,03-12-2012,13:57:19,11,1,Door3,R,1564,10440,2000,Gray,Win60,60,403,Decision
11,23,M,03-12-2012,13:57:19,11,2,Door3,L,570,10500,2000,Win60,Gray,60,304,Decision
11,23,M,03-12-2012,13:57:19,11,3,Door2,L,696,10540,1000,Win40,Gray,40,201,Decision
11,23,M,03-12-2012,13:57:19,11,4,Door4,L,1657,10580,2000,Win40,Gray,40,402,Catch
11,23,M,03-12-2012,13:57:19,11,5,Door2,R,566,10580,1000,Gray,Win0,0,102,Decision
11,23,M,03-12-2012,13:57:19,11,6,Door2,R,676,10620,1000,Gray,Win40,40,102,Decision
11,23,M,03-12-2012,13:57:19,11,7,Door3,R,895,10680,2000,Gray,Win60,60,3,
11,23,M,03-12-2012,13:57:19,11,8,Door2,L,672,10680,2000,Win0,Gray,0,201,Decision
11,23,M,03-12-2012,13:57:19,11,9,Door4,R,795,10760,2000,Gray,Win80,80,104,Catch
11,23,M,03-12-2012,13:57:19,11,10,Door3,L,721,10820,2000,Win60,Gray,60,301,Catch
11,23,M,03-12-2012,13:57:19,11,11,Door2,L,1081,10820,2000,Win0,Gray,0,201,Decision
11,23,M,03-12-2012,13:57:19,11,12,Door4,R,643,10860,2000,Gray,Win40,40,204,Catch
11,23,M,03-12-2012,13:57:19,11,13,Door1,R,1087,10880,1000,Gray,Win20,20,1,
11,23,M,03-12-2012,13:57:19,11,14,Door3,L,865,10940,2000,Win60,Gray,60,304,Decision
11,23,M,03-12-2012,13:57:19,11,15,Door3,R,465,11000,2000,Gray,Win60,60,403,Decision
11,23,M,03-12-2012,13:57:19,11,16,Door3,R,758,11060,2000,Gray,Win60,60,403,Decision
11,23,M,03-12-2012,13:57:19,11,17,Door1,R,614,11080,1000,Gray,Win20,20,201,Decision
11,23,M,03-12-2012,13:57:19,11,18,Door2,R,947,11120,2000,Gray,Win40,40,302,Catch
11,23,M,03-12-2012,13:57:19,11,19,Door1,L,993,11140,1000,Win20,Gray,20,1,
11,23,M,03-12-2012,13:57:19,11,20,Door3,R,728,11200,1000,Gray,Win60,60,103,Catch
11,23,M,03-12-2012,13:57:19,11,21,Door3,L,1727,11260,2000,Win60,Gray,60,3,
11,23,M,03-12-2012,13:57:19,11,22,Door1,R,1031,11280,1000,Gray,Win20,20,201,Decision
11,23,M,03-12-2012,13:57:19,11,23,Door1,R,699,11300,1000,Gray,Win20,20,201,Decision
11,23,M,03-12-2012,13:57:19,11,24,Door2,L,724,11300,1000,Win0,Gray,0,204,Catch
11,23,M,03-12-2012,13:57:19,11,25,Door2,R,1301,11300,2000,Gray,Win0,0,2,
11,23,M,03-12-2012,13:57:19,11,26,Door3,R,583,11360,2000,Gray,Win60,60,203,Catch
11,23,M,03-12-2012,13:57:19,11,27,Door3,L,1013,11420,2000,Win60,Gray,60,301,Catch
11,23,M,03-12-2012,13:57:19,11,28,Door4,R,978,11500,2000,Gray,Win80,80,4,
11,23,M,03-12-2012,13:57:19,11,29,Door2,L,1152,11500,2000,Win0,Gray,0,2,
11,23,M,03-12-2012,13:57:19,11,30,Door3,L,1095,11560,1000,Win60,Gray,60,304,Decision
11,23,M,03-12-2012,13:57:19,11,31,Door1,L,825,11580,2000,Win20,Gray,20,104,Catch
11,23,M,03-12-2012,13:57:19,11,32,Door3,L,1205,11640,1000,Win60,Gray,60,304,Decision
11,23,M,03-12-2012,13:57:19,11,33,Door4,L,787,11720,2000,Win80,Gray,80,4,
11,23,M,03-12-2012,13:57:19,11,34,Door3,R,489,11780,1000,Gray,Win60,60,103,Catch
11,23,M,03-12-2012,13:57:19,11,35,Door1,L,930,11800,2000,Win20,Gray,20,102,Decision
11,23,M,03-12-2012,13:57:19,11,36,Door3,R,979,11860,1000,Gray,Win60,60,403,Decision
11,23,M,03-12-2012,13:57:19,11,37,Door1,R,833,11880,1000,Gray,Win20,20,401,Catch
11,23,M,03-12-2012,13:57:19,11,38,Door3,L,1413,11940,1000,Win60,Gray,60,304,Decision
11,23,M,03-12-2012,13:57:19,11,39,Door1,R,986,11960,1000,Gray,Win20,20,401,Catch
11,23,M,03-12-2012,13:57:19,11,40,Door3,R,951,12020,1000,Gray,Win60,60,203,Catch
11,23,M,03-12-2012,13:57:19,11,41,Door3,R,535,12080,1000,Gray,Win60,60,403,Decision
11,23,M,03-12-2012,13:57:19,11,42,Door2,R,919,12120,2000,Gray,Win40,40,102,Decision
11,23,M,03-12-2012,13:57:19,11,43,Door2,R,520,12160,1000,Gray,Win40,40,102,Decision
11,23,M,03-12-2012,13:57:19,11,44,Door2,R,529,12200,2000,Gray,Win40,40,102,Decision
11,23,M,03-12-2012,13:57:19,11,45,Door3,R,753,12260,1000,Gray,Win60,60,403,Decision
11,23,M,03-12-2012,13:57:19,11,46,Door2,R,720,12300,1000,Gray,Win40,40,402,Catch
11,23,M,03-12-2012,13:57:19,11,47,Door2,R,593,12300,1000,Gray,Win0,0,302,Catch
11,23,M,03-12-2012,13:57:19,11,48,Door3,L,663,12360,1000,Win60,Gray,60,304,Decision
12,19,F,03-12-2012,13:57:41,1,1,Door2,R,2124,0,1000,Gray,Win0,0,302,Catch
12,19,F,03-12-2012,13:57:41,1,2,Door2,L,1357,0,2000,Win0,Gray,0,201,Decision
12,19,F,03-12-2012,13:57:41,1,3,Door1,R,1920,20,2000,Gray,Win20,20,301,Catch
12,19,F,03-12-2012,13:57:41,1,4,Door4,L,1220,60,2000,Win40,Gray,40,401,Catch
12,19,F,03-12-2012,13:57:41,1,5,Door2,L,1601,60,2000,Win0,Gray,0,204,Catch
12,19,F,03-12-2012,13:57:41,1,6,Door4,R,1126,140,2000,Gray,Win80,80,104,Catch
12,19,F,03-12-2012,13:57:41,1,7,Door4,L,790,180,1000,Win40,Gray,40,403,Decision
12,19,F,03-12-2012,13:57:41,1,8,Door1,L,3148,200,1000,Win20,Gray,20,103,Catch
12,19,F,03-12-2012,13:57:41,1,9,Door2,R,7476,240,1000,Gray,Win40,40,2,
12,19,F,03-12-2012,13:57:41,1,10,Door4,R,1159,320,1000,Gray,Win80,80,304,Decision
12,19,F,03-12-2012,13:57:41,1,11,Door4,L,687,360,1000,Win40,Gray,40,403,Decision
12,19,F,03-12-2012,13:57:41,1,12,Door4,L,848,440,2000,Win80,Gray,80,401,Catch
12,19,F,03-12-2012,13:57:41,1,13,Door4,L,708,520,2000,Win80,Gray,80,403,Decision
12,19,F,03-12-2012,13:57:41,1,14,Door4,L,789,600,2000,Win80,Gray,80,402,Catch
12,19,F,03-12-2012,13:57:41,1,15,Door1,R,1315,620,1000,Gray,Win20,20,201,Decision
12,19,F,03-12-2012,13:57:41,1,16,Door4,R,796,700,2000,Gray,Win80,80,304,Decision
12,19,F,03-12-2012,13:57:41,1,17,Door4,L,1089,740,1000,Win40,Gray,40,403,Decision
12,19,F,03-12-2012,13:57:41,1,18,Door4,R,1020,820,2000,Gray,Win80,80,304,Decision
12,19,F,03-12-2012,13:57:41,1,19,Door2,L,696,820,1000,Win0,Gray,0,203,Catch
12,19,F,03-12-2012,13:57:41,1,20,Door4,L,769,860,1000,Win40,Gray,40,402,Catch
12,19,F,03-12-2012,13:57:41,1,21,Door3,L,1432,920,1000,Win60,Gray,60,302,Catch
12,19,F,03-12-2012,13:57:41,1,22,Door2,L,5340,960,1000,Win40,Gray,40,2,
12,19,F,03-12-2012,13:57:41,1,23,Door1,R,772,980,2000,Gray,Win20,20,201,Decision
12,19,F,03-12-2012,13:57:41,1,24,Door3,R,2763,1040,1000,Gray,Win60,60,3,
12,19,F,03-12-2012,13:57:41,1,25,Door3,L,1042,1100,1000,Win60,Gray,60,3,
12,19,F,03-12-2012,13:57:41,1,26,Door4,R,1158,1140,2000,Gray,Win40,40,304,Decision
12,19,F,03-12-2012,13:57:41,1,27,Door1,L,741,1160,2000,Win20,Gray,20,103,Catch
12,19,F,03-12-2012,13:57:41,1,28,Door1,L,1957,1180,2000,Win20,Gray,20,102,Decision
12,19,F,03-12-2012,13:57:41,1,29,Door2,L,1269,1180,1000,Win0,Gray,0,203,Catch
12,19,F,03-12-2012,13:57:41,1,30,Door4,R,1040,1260,2000,Gray,Win80,80,104,Catch
12,19,F,03-12-2012,13:57:41,1,31,Door1,R,1036,1280,2000,Gray,Win20,20,201,Decision
12,19,F,03-12-2012,13:57:41,1,32,Door1,L,1216,1300,1000,Win20,Gray,20,102,Decision
12,19,F,03-12-2012,13:57:41,1,33,Door1,R,821,1320,1000,Gray,Win20,20,201,Decision
12,19,F,03-12-2012,13:57:41,1,34,Door4,R,697,1360,2000,Gray,Win40,40,4,
12,19,F,03-12-2012,13:57:41,1,35,Door1,L,1251,1380,1000,Win20,Gray,20,102,Decision
12,19,F,03-12-2012,13:57:41,1,36,Door4,L,759,1460,2000,Win80,Gray,80,403,Decision
12,19,F,03-12-2012,13:57:41,1,37,Door4,L,927,1500,2000,Win40,Gray,40,403,Decision
12,19,F,03-12-2012,13:57:41,1,38,Door1,L,1375,1520,1000,Win20,Gray,20,102,Decision
12,19,F,03-12-2012,13:57:41,1,39,Door4,R,821,1560,1000,Gray,Win40,40,304,Decision
12,19,F,03-12-2012,13:57:41,1,40,Door1,R,1474,1580,1000,Gray,Win20,20,201,Decision
12,19,F,03-12-2012,13:57:41,1,41,Door1,L,2165,1600,1000,Win20,Gray,20,1,
12,19,F,03-12-2012,13:57:41,1,42,Door1,L,1092,1620,1000,Win20,Gray,20,102,Decision
12,19,F,03-12-2012,13:57:41,1,43,Door3,L,1478,1680,2000,Win60,Gray,60,301,Catch
12,19,F,03-12-2012,13:57:41,1,44,Door4,L,696,1720,2000,Win40,Gray,40,4,
12,19,F,03-12-2012,13:57:41,1,45,Door4,R,777,1760,1000,Gray,Win40,40,304,Decision
12,19,F,03-12-2012,13:57:41,1,46,Door1,L,863,1780,2000,Win20,Gray,20,102,Decision
12,19,F,03-12-2012,13:57:41,1,47,Door1,R,938,1800,1000,Gray,Win20,20,1,
12,19,F,03-12-2012,13:57:41,1,48,Door4,R,1210,1840,1000,Gray,Win40,40,204,Catch
12,19,F,03-12-2012,13:57:41,2,NULL,NULL,NULL,NULL,NULL,NULL,NULL,NULL,NULL,NULL,NULL
12,19,F,03-12-2012,13:57:41,3,1,Door4,L,720,1920,2000,Win80,Gray,80,403,Decision
12,19,F,03-12-2012,13:57:41,3,2,Door2,L,1569,1920,2000,Win0,Gray,0,203,Catch
12,19,F,03-12-2012,13:57:41,3,3,Door1,R,952,1940,1000,Gray,Win20,20,201,Decision
12,19,F,03-12-2012,13:57:41,3,4,Door2,R,2695,1940,2000,Gray,Win0,0,2,
12,19,F,03-12-2012,13:57:41,3,5,Door4,L,737,1980,1000,Win40,Gray,40,401,Catch
12,19,F,03-12-2012,13:57:41,3,6,Door1,L,1168,2000,2000,Win20,Gray,20,102,Decision
12,19,F,03-12-2012,13:57:41,3,7,Door1,R,1007,2020,2000,Gray,Win20,20,201,Decision
12,19,F,03-12-2012,13:57:41,3,8,Door4,L,621,2060,1000,Win40,Gray,40,403,Decision
12,19,F,03-12-2012,13:57:41,3,9,Door1,L,1937,2080,1000,Win20,Gray,20,103,Catch
12,19,F,03-12-2012,13:57:41,3,10,Door4,R,706,2120,1000,Gray,Win40,40,104,Catch
12,19,F,03-12-2012,13:57:41,3,11,Door4,L,675,2160,1000,Win40,Gray,40,403,Decision
12,19,F,03-12-2012,13:57:41,3,12,Door4,R,726,2240,2000,Gray,Win80,80,4,
12,19,F,03-12-2012,13:57:41,3,13,Door1,L,1263,2260,1000,Win20,Gray,20,102,Decision
12,19,F,03-12-2012,13:57:41,3,14,Door4,L,545,2300,2000,Win40,Gray,40,4,
12,19,F,03-12-2012,13:57:41,3,15,Door1,L,945,2320,2000,Win20,Gray,20,102,Decision
12,19,F,03-12-2012,13:57:41,3,16,Door4,L,641,2360,1000,Win40,Gray,40,402,Catch
12,19,F,03-12-2012,13:57:41,3,17,Door4,R,748,2400,2000,Gray,Win40,40,304,Decision
12,19,F,03-12-2012,13:57:41,3,18,Door2,L,563,2400,2000,Win0,Gray,0,201,Decision
12,19,F,03-12-2012,13:57:41,3,19,Door1,L,771,2420,2000,Win20,Gray,20,102,Decision
12,19,F,03-12-2012,13:57:41,3,20,Door3,L,3073,2480,2000,Win60,Gray,60,302,Catch
12,19,F,03-12-2012,13:57:41,3,21,Door4,L,604,2560,1000,Win80,Gray,80,401,Catch
12,19,F,03-12-2012,13:57:41,3,22,Door4,R,690,2600,1000,Gray,Win40,40,104,Catch
12,19,F,03-12-2012,13:57:41,3,23,Door4,R,715,2680,1000,Gray,Win80,80,304,Decision
12,19,F,03-12-2012,13:57:41,3,24,Door4,L,580,2720,2000,Win40,Gray,40,403,Decision
12,19,F,03-12-2012,13:57:41,3,25,Door3,R,1011,2780,2000,Gray,Win60,60,103,Catch
12,19,F,03-12-2012,13:57:41,3,26,Door3,R,759,2840,1000,Gray,Win60,60,3,
12,19,F,03-12-2012,13:57:41,3,27,Door2,L,575,2880,1000,Win40,Gray,40,2,
12,19,F,03-12-2012,13:57:41,3,28,Door1,R,870,2900,1000,Gray,Win20,20,201,Decision
12,19,F,03-12-2012,13:57:41,3,29,Door4,L,568,2940,1000,Win40,Gray,40,402,Catch
12,19,F,03-12-2012,13:57:41,3,30,Door4,R,887,2980,1000,Gray,Win40,40,304,Decision
12,19,F,03-12-2012,13:57:41,3,31,Door3,L,569,3040,1000,Win60,Gray,60,3,
12,19,F,03-12-2012,13:57:41,3,32,Door3,L,728,3100,2000,Win60,Gray,60,301,Catch
12,19,F,03-12-2012,13:57:41,3,33,Door4,L,664,3140,1000,Win40,Gray,40,403,Decision
12,19,F,03-12-2012,13:57:41,3,34,Door2,R,691,3140,2000,Gray,Win0,0,302,Catch
12,19,F,03-12-2012,13:57:41,3,35,Door1,L,1302,3160,1000,Win20,Gray,20,1,
12,19,F,03-12-2012,13:57:41,3,36,Door1,R,1383,3180,2000,Gray,Win20,20,301,Catch
12,19,F,03-12-2012,13:57:41,3,37,Door4,L,836,3220,2000,Win40,Gray,40,403,Decision
12,19,F,03-12-2012,13:57:41,3,38,Door1,R,984,3240,1000,Gray,Win20,20,1,
12,19,F,03-12-2012,13:57:41,3,39,Door1,L,646,3260,1000,Win20,Gray,20,102,Decision
12,19,F,03-12-2012,13:57:41,3,40,Door4,R,1210,3340,2000,Gray,Win80,80,204,Catch
12,19,F,03-12-2012,13:57:41,3,41,Door4,R,919,3380,1000,Gray,Win40,40,304,Decision
12,19,F,03-12-2012,13:57:41,3,42,Door4,R,1032,3460,1000,Gray,Win80,80,304,Decision
12,19,F,03-12-2012,13:57:41,3,43,Door1,L,2420,3480,1000,Win20,Gray,20,102,Decision
12,19,F,03-12-2012,13:57:41,3,44,Door3,R,1529,3540,2000,Gray,Win60,60,203,Catch
12,19,F,03-12-2012,13:57:41,3,45,Door4,R,673,3580,1000,Gray,Win40,40,204,Catch
12,19,F,03-12-2012,13:57:41,3,46,Door4,R,924,3660,1000,Gray,Win80,80,304,Decision
12,19,F,03-12-2012,13:57:41,3,47,Door1,R,1981,3680,2000,Gray,Win20,20,201,Decision
12,19,F,03-12-2012,13:57:41,3,48,Door1,R,1563,3700,1000,Gray,Win20,20,201,Decision
12,19,F,03-12-2012,13:57:41,4,NULL,NULL,NULL,NULL,NULL,NULL,NULL,NULL,NULL,NULL,NULL
12,19,F,03-12-2012,13:57:41,5,1,Door4,L,731,3740,1000,Win40,Gray,40,403,Decision
12,19,F,03-12-2012,13:57:41,5,2,Door2,L,674,3740,2000,Win0,Gray,0,2,
12,19,F,03-12-2012,13:57:41,5,3,Door4,L,1485,3780,2000,Win40,Gray,40,403,Decision
12,19,F,03-12-2012,13:57:41,5,4,Door1,L,1791,3800,2000,Win20,Gray,20,104,Catch
12,19,F,03-12-2012,13:57:41,5,5,Door3,L,1286,3860,2000,Win60,Gray,60,302,Catch
12,19,F,03-12-2012,13:57:41,5,6,Door1,R,1055,3880,2000,Gray,Win20,20,1,
12,19,F,03-12-2012,13:57:41,5,7,Door1,L,1251,3900,1000,Win20,Gray,20,102,Decision
12,19,F,03-12-2012,13:57:41,5,8,Door1,R,1183,3920,1000,Gray,Win20,20,201,Decision
12,19,F,03-12-2012,13:57:41,5,9,Door4,R,924,4000,1000,Gray,Win80,80,104,Catch
12,19,F,03-12-2012,13:57:41,5,10,Door3,R,1565,4060,1000,Gray,Win60,60,203,Catch
12,19,F,03-12-2012,13:57:41,5,11,Door4,R,781,4100,2000,Gray,Win40,40,304,Decision
12,19,F,03-12-2012,13:57:41,5,12,Door4,L,650,4140,1000,Win40,Gray,40,401,Catch
12,19,F,03-12-2012,13:57:41,5,13,Door1,L,598,4160,2000,Win20,Gray,20,1,
12,19,F,03-12-2012,13:57:41,5,14,Door1,R,1107,4180,2000,Gray,Win20,20,201,Decision
12,19,F,03-12-2012,13:57:41,5,15,Door1,R,2781,4200,1000,Gray,Win20,20,301,Catch
12,19,F,03-12-2012,13:57:41,5,16,Door4,L,787,4280,2000,Win80,Gray,80,402,Catch
12,19,F,03-12-2012,13:57:41,5,17,Door1,L,1480,4300,2000,Win20,Gray,20,103,Catch
12,19,F,03-12-2012,13:57:41,5,18,Door4,L,740,4380,2000,Win80,Gray,80,402,Catch
12,19,F,03-12-2012,13:57:41,5,19,Door4,L,627,4460,2000,Win80,Gray,80,401,Catch
12,19,F,03-12-2012,13:57:41,5,20,Door3,L,1087,4520,2000,Win60,Gray,60,302,Catch
12,19,F,03-12-2012,13:57:41,5,21,Door4,L,641,4600,1000,Win80,Gray,80,403,Decision
12,19,F,03-12-2012,13:57:41,5,22,Door1,L,1549,4620,2000,Win20,Gray,20,102,Decision
12,19,F,03-12-2012,13:57:41,5,23,Door4,R,757,4700,2000,Gray,Win80,80,304,Decision
12,19,F,03-12-2012,13:57:41,5,24,Door1,L,1245,4720,1000,Win20,Gray,20,102,Decision
12,19,F,03-12-2012,13:57:41,5,25,Door3,L,912,4780,1000,Win60,Gray,60,3,
12,19,F,03-12-2012,13:57:41,5,26,Door4,L,1016,4820,1000,Win40,Gray,40,403,Decision
12,19,F,03-12-2012,13:57:41,5,27,Door4,L,854,4900,1000,Win80,Gray,80,403,Decision
12,19,F,03-12-2012,13:57:41,5,28,Door4,L,808,4980,1000,Win80,Gray,80,4,
12,19,F,03-12-2012,13:57:41,5,29,Door4,L,846,5060,2000,Win80,Gray,80,403,Decision
12,19,F,03-12-2012,13:57:41,5,30,Door4,R,1122,5100,2000,Gray,Win40,40,304,Decision
12,19,F,03-12-2012,13:57:41,5,31,Door1,R,1330,5120,1000,Gray,Win20,20,201,Decision
12,19,F,03-12-2012,13:57:41,5,32,Door4,R,1147,5160,1000,Gray,Win40,40,304,Decision
12,19,F,03-12-2012,13:57:41,5,33,Door4,R,955,5200,2000,Gray,Win40,40,4,
12,19,F,03-12-2012,13:57:41,5,34,Door3,R,1962,5260,1000,Gray,Win60,60,103,Catch
12,19,F,03-12-2012,13:57:41,5,35,Door1,L,1512,5280,1000,Win20,Gray,20,102,Decision
12,19,F,03-12-2012,13:57:41,5,36,Door1,R,913,5300,2000,Gray,Win20,20,201,Decision
12,19,F,03-12-2012,13:57:41,5,37,Door4,R,1209,5340,1000,Gray,Win40,40,304,Decision
12,19,F,03-12-2012,13:57:41,5,38,Door2,R,871,5380,2000,Gray,Win40,40,2,
12,19,F,03-12-2012,13:57:41,5,39,Door4,R,1009,5420,2000,Gray,Win40,40,204,Catch
12,19,F,03-12-2012,13:57:41,5,40,Door2,L,1327,5420,2000,Win0,Gray,0,201,Decision
12,19,F,03-12-2012,13:57:41,5,41,Door1,R,1287,5440,1000,Gray,Win20,20,301,Catch
12,19,F,03-12-2012,13:57:41,5,42,Door3,R,1121,5500,1000,Gray,Win60,60,203,Catch
12,19,F,03-12-2012,13:57:41,5,43,Door1,L,1122,5520,1000,Win20,Gray,20,102,Decision
12,19,F,03-12-2012,13:57:41,5,44,Door1,L,963,5540,1000,Win20,Gray,20,102,Decision
12,19,F,03-12-2012,13:57:41,5,45,Door4,R,730,5620,2000,Gray,Win80,80,304,Decision
12,19,F,03-12-2012,13:57:41,5,46,Door3,R,954,5680,1000,Gray,Win60,60,3,
12,19,F,03-12-2012,13:57:41,5,47,Door4,R,1274,5720,1000,Gray,Win40,40,204,Catch
12,19,F,03-12-2012,13:57:41,5,48,Door1,R,988,5740,2000,Gray,Win20,20,201,Decision
12,19,F,03-12-2012,13:57:41,6,NULL,NULL,NULL,NULL,NULL,NULL,NULL,NULL,NULL,NULL,NULL
12,19,F,03-12-2012,13:57:41,7,1,Door2,L,850,5780,2000,Win40,Gray,40,2,
12,19,F,03-12-2012,13:57:41,7,2,Door4,L,782,5860,2000,Win80,Gray,80,403,Decision
12,19,F,03-12-2012,13:57:41,7,3,Door1,R,1196,5880,2000,Gray,Win20,20,201,Decision
12,19,F,03-12-2012,13:57:41,7,4,Door3,L,1113,5940,1000,Win60,Gray,60,301,Catch
12,19,F,03-12-2012,13:57:41,7,5,Door1,R,1290,5960,1000,Gray,Win20,20,201,Decision
12,19,F,03-12-2012,13:57:41,7,6,Door4,R,901,6040,2000,Gray,Win80,80,204,Catch
12,19,F,03-12-2012,13:57:41,7,7,Door3,R,1046,6100,1000,Gray,Win60,60,3,
12,19,F,03-12-2012,13:57:41,7,8,Door4,L,545,6140,1000,Win40,Gray,40,403,Decision
12,19,F,03-12-2012,13:57:41,7,9,Door4,R,3344,6220,1000,Gray,Win80,80,304,Decision
12,19,F,03-12-2012,13:57:41,7,10,Door3,R,1769,6280,1000,Gray,Win60,60,203,Catch
12,19,F,03-12-2012,13:57:41,7,11,Door1,L,1639,6300,1000,Win20,Gray,20,103,Catch
12,19,F,03-12-2012,13:57:41,7,12,Door1,R,787,6320,2000,Gray,Win20,20,1,
12,19,F,03-12-2012,13:57:41,7,13,Door1,L,1073,6340,2000,Win20,Gray,20,102,Decision
12,19,F,03-12-2012,13:57:41,7,14,Door4,L,772,6380,1000,Win40,Gray,40,401,Catch
12,19,F,03-12-2012,13:57:41,7,15,Door3,R,947,6440,1000,Gray,Win60,60,203,Catch
12,19,F,03-12-2012,13:57:41,7,16,Door1,R,2243,6460,1000,Gray,Win20,20,201,Decision
12,19,F,03-12-2012,13:57:41,7,17,Door4,L,871,6540,1000,Win80,Gray,80,401,Catch
12,19,F,03-12-2012,13:57:41,7,18,Door1,L,1162,6560,1000,Win20,Gray,20,102,Decision
12,19,F,03-12-2012,13:57:41,7,19,Door4,R,975,6600,2000,Gray,Win40,40,4,
12,19,F,03-12-2012,13:57:41,7,20,Door1,L,999,6620,1000,Win20,Gray,20,102,Decision
12,19,F,03-12-2012,13:57:41,7,21,Door4,R,732,6700,1000,Gray,Win80,80,204,Catch
12,19,F,03-12-2012,13:57:41,7,22,Door4,L,1084,6780,2000,Win80,Gray,80,403,Decision
12,19,F,03-12-2012,13:57:41,7,23,Door2,R,1142,6780,1000,Gray,Win0,0,2,
12,19,F,03-12-2012,13:57:41,7,24,Door3,L,774,6840,2000,Win60,Gray,60,302,Catch
12,19,F,03-12-2012,13:57:41,7,25,Door1,L,973,6860,1000,Win20,Gray,20,102,Decision
12,19,F,03-12-2012,13:57:41,7,26,Door4,R,700,6940,2000,Gray,Win80,80,304,Decision
12,19,F,03-12-2012,13:57:41,7,27,Door1,L,814,6960,2000,Win20,Gray,20,103,Catch
12,19,F,03-12-2012,13:57:41,7,28,Door1,L,1714,6980,2000,Win20,Gray,20,102,Decision
12,19,F,03-12-2012,13:57:41,7,29,Door4,R,1211,7060,1000,Gray,Win80,80,304,Decision
12,19,F,03-12-2012,13:57:41,7,30,Door1,R,1465,7080,1000,Gray,Win20,20,201,Decision
12,19,F,03-12-2012,13:57:41,7,31,Door4,R,762,7120,2000,Gray,Win40,40,304,Decision
12,19,F,03-12-2012,13:57:41,7,32,Door4,R,482,7160,2000,Gray,Win40,40,304,Decision
12,19,F,03-12-2012,13:57:41,7,33,Door4,R,612,7240,1000,Gray,Win80,80,104,Catch
12,19,F,03-12-2012,13:57:41,7,34,Door1,R,1128,7260,2000,Gray,Win20,20,301,Catch
12,19,F,03-12-2012,13:57:41,7,35,Door4,R,505,7340,2000,Gray,Win80,80,304,Decision
12,19,F,03-12-2012,13:57:41,7,36,Door4,L,618,7420,2000,Win80,Gray,80,402,Catch
12,19,F,03-12-2012,13:57:41,7,37,Door4,L,727,7460,2000,Win40,Gray,40,403,Decision
12,19,F,03-12-2012,13:57:41,7,38,Door4,L,703,7500,2000,Win40,Gray,40,403,Decision
12,19,F,03-12-2012,13:57:41,7,39,Door4,L,577,7580,1000,Win80,Gray,80,4,
12,19,F,03-12-2012,13:57:41,7,40,Door1,L,1118,7600,2000,Win20,Gray,20,102,Decision
12,19,F,03-12-2012,13:57:41,7,41,Door4,L,895,7680,2000,Win80,Gray,80,402,Catch
12,19,F,03-12-2012,13:57:41,7,42,Door1,R,1041,7700,2000,Gray,Win20,20,201,Decision
12,19,F,03-12-2012,13:57:41,7,43,Door3,L,1093,7760,1000,Win60,Gray,60,302,Catch
12,19,F,03-12-2012,13:57:41,7,44,Door4,R,614,7840,2000,Gray,Win80,80,104,Catch
12,19,F,03-12-2012,13:57:41,7,45,Door1,L,659,7860,1000,Win20,Gray,20,1,
12,19,F,03-12-2012,13:57:41,7,46,Door1,R,815,7880,1000,Gray,Win20,20,201,Decision
12,19,F,03-12-2012,13:57:41,7,47,Door3,L,940,7940,2000,Win60,Gray,60,3,
12,19,F,03-12-2012,13:57:41,7,48,Door4,L,1379,7980,1000,Win40,Gray,40,403,Decision
12,19,F,03-12-2012,13:57:41,8,NULL,NULL,NULL,NULL,NULL,NULL,NULL,NULL,NULL,NULL,NULL
12,19,F,03-12-2012,13:57:41,9,1,Door1,L,1253,8000,1000,Win20,Gray,20,102,Decision
12,19,F,03-12-2012,13:57:41,9,2,Door1,R,865,8020,1000,Gray,Win20,20,201,Decision
12,19,F,03-12-2012,13:57:41,9,3,Door2,R,596,8060,2000,Gray,Win40,40,2,
12,19,F,03-12-2012,13:57:41,9,4,Door4,L,545,8100,1000,Win40,Gray,40,402,Catch
12,19,F,03-12-2012,13:57:41,9,5,Door3,R,977,8160,2000,Gray,Win60,60,203,Catch
12,19,F,03-12-2012,13:57:41,9,6,Door4,L,919,8200,2000,Win40,Gray,40,403,Decision
12,19,F,03-12-2012,13:57:41,9,7,Door1,R,752,8220,1000,Gray,Win20,20,1,
12,19,F,03-12-2012,13:57:41,9,8,Door4,L,990,8260,2000,Win40,Gray,40,401,Catch
12,19,F,03-12-2012,13:57:41,9,9,Door1,L,990,8280,1000,Win20,Gray,20,103,Catch
12,19,F,03-12-2012,13:57:41,9,10,Door1,R,1315,8300,1000,Gray,Win20,20,201,Decision
12,19,F,03-12-2012,13:57:41,9,11,Door4,R,892,8340,2000,Gray,Win40,40,104,Catch
12,19,F,03-12-2012,13:57:41,9,12,Door1,L,1766,8360,2000,Win20,Gray,20,102,Decision
12,19,F,03-12-2012,13:57:41,9,13,Door4,R,1093,8400,2000,Gray,Win40,40,204,Catch
12,19,F,03-12-2012,13:57:41,9,14,Door4,R,623,8480,1000,Gray,Win80,80,4,
12,19,F,03-12-2012,13:57:41,9,15,Door3,R,1124,8540,2000,Gray,Win60,60,103,Catch
12,19,F,03-12-2012,13:57:41,9,16,Door4,R,901,8620,1000,Gray,Win80,80,304,Decision
12,19,F,03-12-2012,13:57:41,9,17,Door4,L,990,8700,1000,Win80,Gray,80,403,Decision
12,19,F,03-12-2012,13:57:41,9,18,Door2,L,1515,8740,2000,Win40,Gray,40,2,
12,19,F,03-12-2012,13:57:41,9,19,Door4,L,1012,8820,1000,Win80,Gray,80,403,Decision
12,19,F,03-12-2012,13:57:41,9,20,Door4,L,1993,8900,1000,Win80,Gray,80,401,Catch
12,19,F,03-12-2012,13:57:41,9,21,Door1,R,1344,8920,2000,Gray,Win20,20,201,Decision
12,19,F,03-12-2012,13:57:41,9,22,Door1,L,1374,8940,2000,Win20,Gray,20,102,Decision
12,19,F,03-12-2012,13:57:41,9,23,Door4,L,645,9020,1000,Win80,Gray,80,403,Decision
12,19,F,03-12-2012,13:57:41,9,24,Door1,L,1873,9040,1000,Win20,Gray,20,102,Decision
12,19,F,03-12-2012,13:57:41,9,25,Door3,L,940,9100,1000,Win60,Gray,60,3,
12,19,F,03-12-2012,13:57:41,9,26,Door4,L,652,9140,2000,Win40,Gray,40,402,Catch
12,19,F,03-12-2012,13:57:41,9,27,Door4,L,567,9220,1000,Win80,Gray,80,4,
12,19,F,03-12-2012,13:57:41,9,28,Door3,L,1669,9280,1000,Win60,Gray,60,301,Catch
12,19,F,03-12-2012,13:57:41,9,29,Door1,L,889,9300,1000,Win20,Gray,20,102,Decision
12,19,F,03-12-2012,13:57:41,9,30,Door3,L,1075,9360,1000,Win60,Gray,60,302,Catch
12,19,F,03-12-2012,13:57:41,9,31,Door4,L,718,9440,1000,Win80,Gray,80,403,Decision
12,19,F,03-12-2012,13:57:41,9,32,Door1,R,926,9460,1000,Gray,Win20,20,201,Decision
12,19,F,03-12-2012,13:57:41,9,33,Door4,R,854,9500,1000,Gray,Win40,40,304,Decision
12,19,F,03-12-2012,13:57:41,9,34,Door3,R,650,9560,2000,Gray,Win60,60,3,
12,19,F,03-12-2012,13:57:41,9,35,Door3,L,1245,9620,2000,Win60,Gray,60,302,Catch
12,19,F,03-12-2012,13:57:41,9,36,Door4,L,665,9660,1000,Win40,Gray,40,403,Decision
12,19,F,03-12-2012,13:57:41,9,37,Door1,L,724,9680,2000,Win20,Gray,20,1,
12,19,F,03-12-2012,13:57:41,9,38,Door4,R,653,9720,2000,Gray,Win40,40,204,Catch
12,19,F,03-12-2012,13:57:41,9,39,Door1,R,1065,9740,2000,Gray,Win20,20,201,Decision
12,19,F,03-12-2012,13:57:41,9,40,Door1,R,835,9760,1000,Gray,Win20,20,201,Decision
12,19,F,03-12-2012,13:57:41,9,41,Door4,R,672,9800,2000,Gray,Win40,40,104,Catch
12,19,F,03-12-2012,13:57:41,9,42,Door4,R,594,9840,1000,Gray,Win40,40,304,Decision
12,19,F,03-12-2012,13:57:41,9,43,Door4,R,551,9920,2000,Gray,Win80,80,304,Decision
12,19,F,03-12-2012,13:57:41,9,44,Door3,L,1366,9980,1000,Win60,Gray,60,301,Catch
12,19,F,03-12-2012,13:57:41,9,45,Door3,R,2461,10040,1000,Gray,Win60,60,203,Catch
12,19,F,03-12-2012,13:57:41,9,46,Door4,R,712,10080,2000,Gray,Win40,40,304,Decision
12,19,F,03-12-2012,13:57:41,9,47,Door4,R,713,10160,1000,Gray,Win80,80,304,Decision
12,19,F,03-12-2012,13:57:41,9,48,Door1,L,1314,10180,1000,Win20,Gray,20,102,Decision
12,19,F,03-12-2012,13:57:41,10,NULL,NULL,NULL,NULL,NULL,NULL,NULL,NULL,NULL,NULL,NULL
12,19,F,03-12-2012,13:57:41,11,1,Door4,R,906,10220,2000,Gray,Win40,40,4,
12,19,F,03-12-2012,13:57:41,11,2,Door4,R,1016,10260,2000,Gray,Win40,40,304,Decision
12,19,F,03-12-2012,13:57:41,11,3,Door1,L,949,10280,1000,Win20,Gray,20,102,Decision
12,19,F,03-12-2012,13:57:41,11,4,Door1,R,1294,10300,2000,Gray,Win20,20,201,Decision
12,19,F,03-12-2012,13:57:41,11,5,Door1,R,967,10320,1000,Gray,Win20,20,201,Decision
12,19,F,03-12-2012,13:57:41,11,6,Door4,L,717,10360,1000,Win40,Gray,40,401,Catch
12,19,F,03-12-2012,13:57:41,11,7,Door4,L,15366,10440,2000,Win80,Gray,80,402,Catch
12,19,F,03-12-2012,13:57:41,11,8,Door3,R,12477,10500,1000,Gray,Win60,60,203,Catch
12,19,F,03-12-2012,13:57:41,11,9,Door1,R,1032,10520,1000,Gray,Win20,20,201,Decision
12,19,F,03-12-2012,13:57:41,11,10,Door1,L,940,10540,2000,Win20,Gray,20,102,Decision
12,19,F,03-12-2012,13:57:41,11,11,Door1,L,1076,10560,1000,Win20,Gray,20,102,Decision
12,19,F,03-12-2012,13:57:41,11,12,Door2,R,1223,10600,2000,Gray,Win40,40,2,
12,19,F,03-12-2012,13:57:41,11,13,Door2,R,1052,10640,2000,Gray,Win40,40,302,Catch
12,19,F,03-12-2012,13:57:41,11,14,Door1,L,734,10660,1000,Win20,Gray,20,103,Catch
12,19,F,03-12-2012,13:57:41,11,15,Door4,L,1005,10700,1000,Win40,Gray,40,403,Decision
12,19,F,03-12-2012,13:57:41,11,16,Door4,L,1364,10740,1000,Win40,Gray,40,401,Catch
12,19,F,03-12-2012,13:57:41,11,17,Door1,R,1212,10760,2000,Gray,Win20,20,201,Decision
12,19,F,03-12-2012,13:57:41,11,18,Door4,L,680,10800,2000,Win40,Gray,40,403,Decision
12,19,F,03-12-2012,13:57:41,11,19,Door4,L,802,10880,2000,Win80,Gray,80,4,
12,19,F,03-12-2012,13:57:41,11,20,Door4,L,896,10960,2000,Win80,Gray,80,403,Decision
12,19,F,03-12-2012,13:57:41,11,21,Door1,L,769,10980,2000,Win20,Gray,20,1,
12,19,F,03-12-2012,13:57:41,11,22,Door4,R,712,11060,2000,Gray,Win80,80,104,Catch
12,19,F,03-12-2012,13:57:41,11,23,Door2,R,1265,11100,1000,Gray,Win40,40,102,Decision
12,19,F,03-12-2012,13:57:41,11,24,Door4,L,652,11140,1000,Win40,Gray,40,402,Catch
12,19,F,03-12-2012,13:57:41,11,25,Door1,R,815,11160,1000,Gray,Win20,20,1,
12,19,F,03-12-2012,13:57:41,11,26,Door4,R,764,11240,2000,Gray,Win80,80,304,Decision
12,19,F,03-12-2012,13:57:41,11,27,Door3,L,683,11300,2000,Win60,Gray,60,3,
12,19,F,03-12-2012,13:57:41,11,28,Door4,R,868,11380,2000,Gray,Win80,80,204,Catch
12,19,F,03-12-2012,13:57:41,11,29,Door4,L,1031,11460,1000,Win80,Gray,80,403,Decision
12,19,F,03-12-2012,13:57:41,11,30,Door1,R,1075,11480,2000,Gray,Win20,20,201,Decision
12,19,F,03-12-2012,13:57:41,11,31,Door3,R,822,11540,1000,Gray,Win60,60,3,
12,19,F,03-12-2012,13:57:41,11,32,Door4,R,892,11620,1000,Gray,Win80,80,304,Decision
12,19,F,03-12-2012,13:57:41,11,33,Door1,R,1125,11640,1000,Gray,Win20,20,301,Catch
12,19,F,03-12-2012,13:57:41,11,34,Door4,R,990,11720,1000,Gray,Win80,80,204,Catch
12,19,F,03-12-2012,13:57:41,11,35,Door3,L,956,11780,2000,Win60,Gray,60,301,Catch
12,19,F,03-12-2012,13:57:41,11,36,Door4,L,947,11820,2000,Win40,Gray,40,403,Decision
12,19,F,03-12-2012,13:57:41,11,37,Door4,R,764,11900,2000,Gray,Win80,80,304,Decision
12,19,F,03-12-2012,13:57:41,11,38,Door1,L,826,11920,2000,Win20,Gray,20,103,Catch
12,19,F,03-12-2012,13:57:41,11,39,Door1,R,926,11940,2000,Gray,Win20,20,201,Decision
12,19,F,03-12-2012,13:57:41,11,40,Door3,R,1255,12000,2000,Gray,Win60,60,203,Catch
12,19,F,03-12-2012,13:57:41,11,41,Door4,R,1114,12040,2000,Gray,Win40,40,104,Catch
12,19,F,03-12-2012,13:57:41,11,42,Door4,L,1411,12080,2000,Win40,Gray,40,403,Decision
12,19,F,03-12-2012,13:57:41,11,43,Door4,R,608,12120,1000,Gray,Win40,40,304,Decision
12,19,F,03-12-2012,13:57:41,11,44,Door1,L,1109,12140,1000,Win20,Gray,20,102,Decision
12,19,F,03-12-2012,13:57:41,11,45,Door4,R,688,12180,1000,Gray,Win40,40,304,Decision
12,19,F,03-12-2012,13:57:41,11,46,Door3,L,1017,12240,1000,Win60,Gray,60,302,Catch
12,19,F,03-12-2012,13:57:41,11,47,Door2,L,813,12280,1000,Win40,Gray,40,2,
12,19,F,03-12-2012,13:57:41,11,48,Door1,L,1170,12300,2000,Win20,Gray,20,102,Decision
13,18,F,03-12-2012,13:57:54,1,1,Door1,L,1745,20,1000,Win20,Gray,20,102,Decision
13,18,F,03-12-2012,13:57:54,1,2,Door1,R,1018,40,2000,Gray,Win20,20,201,Decision
13,18,F,03-12-2012,13:57:54,1,3,Door1,L,822,60,2000,Win20,Gray,20,102,Decision
13,18,F,03-12-2012,13:57:54,1,4,Door4,R,1155,100,2000,Gray,Win40,40,304,Decision
13,18,F,03-12-2012,13:57:54,1,5,Door1,R,995,120,2000,Gray,Win20,20,201,Decision
13,18,F,03-12-2012,13:57:54,1,6,Door4,R,976,160,2000,Gray,Win40,40,4,
13,18,F,03-12-2012,13:57:54,1,7,Door4,R,1199,200,1000,Gray,Win40,40,304,Decision
13,18,F,03-12-2012,13:57:54,1,8,Door1,R,1644,220,2000,Gray,Win20,20,301,Catch
13,18,F,03-12-2012,13:57:54,1,9,Door1,L,767,240,1000,Win20,Gray,20,102,Decision
13,18,F,03-12-2012,13:57:54,1,10,Door1,R,846,260,2000,Gray,Win20,20,1,
13,18,F,03-12-2012,13:57:54,1,11,Door4,R,1362,300,2000,Gray,Win40,40,104,Catch
13,18,F,03-12-2012,13:57:54,1,12,Door3,R,1768,360,2000,Gray,Win60,60,203,Catch
13,18,F,03-12-2012,13:57:54,1,13,Door4,R,943,400,1000,Gray,Win40,40,304,Decision
13,18,F,03-12-2012,13:57:54,1,14,Door4,R,1047,480,1000,Gray,Win80,80,304,Decision
13,18,F,03-12-2012,13:57:54,1,15,Door1,L,922,500,1000,Win20,Gray,20,103,Catch
13,18,F,03-12-2012,13:57:54,1,16,Door3,L,1099,560,1000,Win60,Gray,60,3,
13,18,F,03-12-2012,13:57:54,1,17,Door2,R,757,560,2000,Gray,Win0,0,302,Catch
13,18,F,03-12-2012,13:57:54,1,18,Door4,L,1308,600,1000,Win40,Gray,40,403,Decision
13,18,F,03-12-2012,13:57:54,1,19,Door4,L,886,640,1000,Win40,Gray,40,403,Decision
13,18,F,03-12-2012,13:57:54,1,20,Door1,L,1016,660,1000,Win20,Gray,20,102,Decision
13,18,F,03-12-2012,13:57:54,1,21,Door1,R,1204,680,1000,Gray,Win20,20,201,Decision
13,18,F,03-12-2012,13:57:54,1,22,Door1,R,954,700,2000,Gray,Win20,20,201,Decision
13,18,F,03-12-2012,13:57:54,1,23,Door2,L,1001,740,2000,Win40,Gray,40,2,
13,18,F,03-12-2012,13:57:54,1,24,Door4,L,838,780,2000,Win40,Gray,40,403,Decision
13,18,F,03-12-2012,13:57:54,1,25,Door1,L,978,800,2000,Win20,Gray,20,102,Decision
13,18,F,03-12-2012,13:57:54,1,26,Door2,R,1322,800,1000,Gray,Win0,0,302,Catch
13,18,F,03-12-2012,13:57:54,1,27,Door2,R,890,840,2000,Gray,Win40,40,2,
13,18,F,03-12-2012,13:57:54,1,28,Door4,L,980,920,1000,Win80,Gray,80,402,Catch
13,18,F,03-12-2012,13:57:54,1,29,Door4,L,1050,1000,1000,Win80,Gray,80,403,Decision
13,18,F,03-12-2012,13:57:54,1,30,Door1,L,1061,1020,2000,Win20,Gray,20,102,Decision
13,18,F,03-12-2012,13:57:54,1,31,Door3,R,952,1080,1000,Gray,Win60,60,203,Catch
13,18,F,03-12-2012,13:57:54,1,32,Door1,L,1128,1100,1000,Win20,Gray,20,103,Catch
13,18,F,03-12-2012,13:57:54,1,33,Door4,L,1416,1140,2000,Win40,Gray,40,401,Catch
13,18,F,03-12-2012,13:57:54,1,34,Door4,L,1125,1180,2000,Win40,Gray,40,403,Decision
13,18,F,03-12-2012,13:57:54,1,35,Door4,L,1039,1220,1000,Win40,Gray,40,402,Catch
13,18,F,03-12-2012,13:57:54,1,36,Door4,L,1474,1260,1000,Win40,Gray,40,401,Catch
13,18,F,03-12-2012,13:57:54,1,37,Door4,R,1797,1300,1000,Gray,Win40,40,104,Catch
13,18,F,03-12-2012,13:57:54,1,38,Door4,R,674,1380,2000,Gray,Win80,80,204,Catch
13,18,F,03-12-2012,13:57:54,1,39,Door4,R,621,1420,1000,Gray,Win40,40,304,Decision
13,18,F,03-12-2012,13:57:54,1,40,Door4,L,897,1500,2000,Win80,Gray,80,4,
13,18,F,03-12-2012,13:57:54,1,41,Door1,R,971,1520,2000,Gray,Win20,20,301,Catch
13,18,F,03-12-2012,13:57:54,1,42,Door4,R,562,1600,2000,Gray,Win80,80,304,Decision
13,18,F,03-12-2012,13:57:54,1,43,Door1,R,1128,1620,1000,Gray,Win20,20,201,Decision
13,18,F,03-12-2012,13:57:54,1,44,Door4,R,665,1660,1000,Gray,Win40,40,204,Catch
13,18,F,03-12-2012,13:57:54,1,45,Door1,L,723,1680,2000,Win20,Gray,20,1,
13,18,F,03-12-2012,13:57:54,1,46,Door4,L,652,1720,1000,Win40,Gray,40,403,Decision
13,18,F,03-12-2012,13:57:54,1,47,Door1,R,1063,1740,1000,Gray,Win20,20,201,Decision
13,18,F,03-12-2012,13:57:54,1,48,Door3,R,554,1800,1000,Gray,Win60,60,3,
13,18,F,03-12-2012,13:57:54,2,NULL,NULL,NULL,NULL,NULL,NULL,NULL,NULL,NULL,NULL,NULL
13,18,F,03-12-2012,13:57:54,3,1,Door1,L,1717,1820,2000,Win20,Gray,20,102,Decision
13,18,F,03-12-2012,13:57:54,3,2,Door1,L,534,1840,2000,Win20,Gray,20,1,
13,18,F,03-12-2012,13:57:54,3,3,Door1,L,782,1860,2000,Win20,Gray,20,102,Decision
13,18,F,03-12-2012,13:57:54,3,4,Door4,R,964,1900,2000,Gray,Win40,40,204,Catch
13,18,F,03-12-2012,13:57:54,3,5,Door3,R,755,1960,2000,Gray,Win60,60,203,Catch
13,18,F,03-12-2012,13:57:54,3,6,Door3,L,499,2020,2000,Win60,Gray,60,3,
13,18,F,03-12-2012,13:57:54,3,7,Door1,R,644,2040,2000,Gray,Win20,20,201,Decision
13,18,F,03-12-2012,13:57:54,3,8,Door4,L,863,2120,2000,Win80,Gray,80,401,Catch
13,18,F,03-12-2012,13:57:54,3,9,Door4,R,530,2160,1000,Gray,Win40,40,304,Decision
13,18,F,03-12-2012,13:57:54,3,10,Door4,L,730,2200,1000,Win40,Gray,40,403,Decision
13,18,F,03-12-2012,13:57:54,3,11,Door4,L,530,2280,2000,Win80,Gray,80,4,
13,18,F,03-12-2012,13:57:54,3,12,Door3,L,682,2340,1000,Win60,Gray,60,302,Catch
13,18,F,03-12-2012,13:57:54,3,13,Door4,R,892,2380,1000,Gray,Win40,40,304,Decision
13,18,F,03-12-2012,13:57:54,3,14,Door1,L,502,2400,1000,Win20,Gray,20,102,Decision
13,18,F,03-12-2012,13:57:54,3,15,Door4,R,560,2480,1000,Gray,Win80,80,204,Catch
13,18,F,03-12-2012,13:57:54,3,16,Door3,L,615,2540,1000,Win60,Gray,60,302,Catch
13,18,F,03-12-2012,13:57:54,3,17,Door4,R,508,2620,2000,Gray,Win80,80,4,
13,18,F,03-12-2012,13:57:54,3,18,Door4,R,445,2660,1000,Gray,Win40,40,304,Decision
13,18,F,03-12-2012,13:57:54,3,19,Door4,L,472,2740,1000,Win80,Gray,80,401,Catch
13,18,F,03-12-2012,13:57:54,3,20,Door4,R,491,2820,1000,Gray,Win80,80,304,Decision
13,18,F,03-12-2012,13:57:54,3,21,Door3,R,861,2880,1000,Gray,Win60,60,3,
13,18,F,03-12-2012,13:57:54,3,22,Door4,R,472,2960,2000,Gray,Win80,80,104,Catch
13,18,F,03-12-2012,13:57:54,3,23,Door4,L,523,3000,2000,Win40,Gray,40,403,Decision
13,18,F,03-12-2012,13:57:54,3,24,Door4,R,467,3040,2000,Gray,Win40,40,104,Catch
13,18,F,03-12-2012,13:57:54,3,25,Door3,R,735,3100,1000,Gray,Win60,60,103,Catch
13,18,F,03-12-2012,13:57:54,3,26,Door1,R,1151,3120,1000,Gray,Win20,20,301,Catch
13,18,F,03-12-2012,13:57:54,3,27,Door4,L,1174,3160,2000,Win40,Gray,40,403,Decision
13,18,F,03-12-2012,13:57:54,3,28,Door1,L,1140,3180,2000,Win20,Gray,20,102,Decision
13,18,F,03-12-2012,13:57:54,3,29,Door4,L,749,3260,2000,Win80,Gray,80,403,Decision
13,18,F,03-12-2012,13:57:54,3,30,Door2,R,612,3260,2000,Gray,Win0,0,2,
13,18,F,03-12-2012,13:57:54,3,31,Door1,R,897,3280,2000,Gray,Win20,20,201,Decision
13,18,F,03-12-2012,13:57:54,3,32,Door1,L,1602,3300,2000,Win20,Gray,20,103,Catch
13,18,F,03-12-2012,13:57:54,3,33,Door1,R,728,3320,2000,Gray,Win20,20,1,
13,18,F,03-12-2012,13:57:54,3,34,Door1,L,1144,3340,1000,Win20,Gray,20,102,Decision
13,18,F,03-12-2012,13:57:54,3,35,Door1,R,616,3360,2000,Gray,Win20,20,201,Decision
13,18,F,03-12-2012,13:57:54,3,36,Door1,R,821,3380,2000,Gray,Win20,20,301,Catch
13,18,F,03-12-2012,13:57:54,3,37,Door2,L,3314,3380,1000,Win0,Gray,0,2,
13,18,F,03-12-2012,13:57:54,3,38,Door1,R,658,3400,2000,Gray,Win20,20,201,Decision
13,18,F,03-12-2012,13:57:54,3,39,Door4,L,542,3440,1000,Win40,Gray,40,402,Catch
13,18,F,03-12-2012,13:57:54,3,40,Door4,R,966,3520,2000,Gray,Win80,80,304,Decision
13,18,F,03-12-2012,13:57:54,3,41,Door4,L,548,3560,2000,Win40,Gray,40,403,Decision
13,18,F,03-12-2012,13:57:54,3,42,Door4,L,948,3600,1000,Win40,Gray,40,403,Decision
13,18,F,03-12-2012,13:57:54,3,43,Door1,R,627,3620,2000,Gray,Win20,20,201,Decision
13,18,F,03-12-2012,13:57:54,3,44,Door4,L,719,3700,2000,Win80,Gray,80,402,Catch
13,18,F,03-12-2012,13:57:54,3,45,Door1,R,584,3720,2000,Gray,Win20,20,201,Decision
13,18,F,03-12-2012,13:57:54,3,46,Door4,R,566,3760,1000,Gray,Win40,40,304,Decision
13,18,F,03-12-2012,13:57:54,3,47,Door3,R,829,3820,2000,Gray,Win60,60,203,Catch
13,18,F,03-12-2012,13:57:54,3,48,Door1,L,793,3840,2000,Win20,Gray,20,102,Decision
13,18,F,03-12-2012,13:57:54,4,NULL,NULL,NULL,NULL,NULL,NULL,NULL,NULL,NULL,NULL,NULL
13,18,F,03-12-2012,13:57:54,5,1,Door1,R,918,3860,1000,Gray,Win20,20,1,
13,18,F,03-12-2012,13:57:54,5,2,Door4,L,629,3940,1000,Win80,Gray,80,403,Decision
13,18,F,03-12-2012,13:57:54,5,3,Door3,R,770,4000,1000,Gray,Win60,60,3,
13,18,F,03-12-2012,13:57:54,5,4,Door4,R,496,4040,2000,Gray,Win40,40,4,
13,18,F,03-12-2012,13:57:54,5,5,Door4,R,490,4120,1000,Gray,Win80,80,304,Decision
13,18,F,03-12-2012,13:57:54,5,6,Door4,L,764,4200,2000,Win80,Gray,80,402,Catch
13,18,F,03-12-2012,13:57:54,5,7,Door3,R,698,4260,2000,Gray,Win60,60,203,Catch
13,18,F,03-12-2012,13:57:54,5,8,Door4,R,580,4300,2000,Gray,Win40,40,204,Catch
13,18,F,03-12-2012,13:57:54,5,9,Door1,L,658,4320,1000,Win20,Gray,20,102,Decision
13,18,F,03-12-2012,13:57:54,5,10,Door3,L,981,4380,2000,Win60,Gray,60,302,Catch
13,18,F,03-12-2012,13:57:54,5,11,Door1,L,1059,4400,2000,Win20,Gray,20,102,Decision
13,18,F,03-12-2012,13:57:54,5,12,Door4,R,543,4480,2000,Gray,Win80,80,204,Catch
13,18,F,03-12-2012,13:57:54,5,13,Door1,R,726,4500,1000,Gray,Win20,20,201,Decision
13,18,F,03-12-2012,13:57:54,5,14,Door3,L,1007,4560,1000,Win60,Gray,60,301,Catch
13,18,F,03-12-2012,13:57:54,5,15,Door3,R,900,4620,1000,Gray,Win60,60,103,Catch
13,18,F,03-12-2012,13:57:54,5,16,Door4,L,469,4700,2000,Win80,Gray,80,4,
13,18,F,03-12-2012,13:57:54,5,17,Door4,R,872,4740,1000,Gray,Win40,40,304,Decision
13,18,F,03-12-2012,13:57:54,5,18,Door2,R,627,4780,1000,Gray,Win40,40,2,
13,18,F,03-12-2012,13:57:54,5,19,Door2,L,527,4820,2000,Win40,Gray,40,201,Decision
13,18,F,03-12-2012,13:57:54,5,20,Door2,L,751,4820,1000,Win0,Gray,0,201,Decision
13,18,F,03-12-2012,13:57:54,5,21,Door1,L,919,4840,1000,Win20,Gray,20,102,Decision
13,18,F,03-12-2012,13:57:54,5,22,Door2,L,720,4840,2000,Win0,Gray,0,2,
13,18,F,03-12-2012,13:57:54,5,23,Door4,L,737,4880,1000,Win40,Gray,40,402,Catch
13,18,F,03-12-2012,13:57:54,5,24,Door4,R,769,4920,1000,Gray,Win40,40,304,Decision
13,18,F,03-12-2012,13:57:54,5,25,Door4,L,759,4960,1000,Win40,Gray,40,401,Catch
13,18,F,03-12-2012,13:57:54,5,26,Door3,L,846,5020,2000,Win60,Gray,60,304,Decision
13,18,F,03-12-2012,13:57:54,5,27,Door3,R,995,5080,1000,Gray,Win60,60,403,Decision
13,18,F,03-12-2012,13:57:54,5,28,Door3,R,728,5140,2000,Gray,Win60,60,403,Decision
13,18,F,03-12-2012,13:57:54,5,29,Door1,R,751,5160,2000,Gray,Win20,20,201,Decision
13,18,F,03-12-2012,13:57:54,5,30,Door1,R,760,5180,1000,Gray,Win20,20,201,Decision
13,18,F,03-12-2012,13:57:54,5,31,Door1,L,574,5200,2000,Win20,Gray,20,1,
13,18,F,03-12-2012,13:57:54,5,32,Door4,L,685,5240,1000,Win40,Gray,40,403,Decision
13,18,F,03-12-2012,13:57:54,5,33,Door3,R,791,5300,1000,Gray,Win60,60,203,Catch
13,18,F,03-12-2012,13:57:54,5,34,Door3,R,654,5360,2000,Gray,Win60,60,403,Decision
13,18,F,03-12-2012,13:57:54,5,35,Door1,L,633,5380,2000,Win20,Gray,20,102,Decision
13,18,F,03-12-2012,13:57:54,5,36,Door3,L,805,5440,2000,Win60,Gray,60,304,Decision
13,18,F,03-12-2012,13:57:54,5,37,Door1,L,634,5460,1000,Win20,Gray,20,102,Decision
13,18,F,03-12-2012,13:57:54,5,38,Door3,L,927,5520,1000,Win60,Gray,60,301,Catch
13,18,F,03-12-2012,13:57:54,5,39,Door1,R,1175,5540,1000,Gray,Win20,20,401,Catch
13,18,F,03-12-2012,13:57:54,5,40,Door2,L,1045,5540,2000,Win0,Gray,0,201,Decision
13,18,F,03-12-2012,13:57:54,5,41,Door4,R,1064,5580,1000,Gray,Win40,40,104,Catch
13,18,F,03-12-2012,13:57:54,5,42,Door3,R,1163,5640,1000,Gray,Win60,60,103,Catch
13,18,F,03-12-2012,13:57:54,5,43,Door1,L,1082,5660,1000,Win20,Gray,20,102,Decision
13,18,F,03-12-2012,13:57:54,5,44,Door3,L,1311,5720,2000,Win60,Gray,60,304,Decision
13,18,F,03-12-2012,13:57:54,5,45,Door3,L,653,5780,2000,Win60,Gray,60,3,
13,18,F,03-12-2012,13:57:54,5,46,Door4,R,1313,5860,1000,Gray,Win80,80,104,Catch
13,18,F,03-12-2012,13:57:54,5,47,Door3,L,1202,5920,2000,Win60,Gray,60,302,Catch
13,18,F,03-12-2012,13:57:54,5,48,Door3,R,1207,5980,2000,Gray,Win60,60,403,Decision
13,18,F,03-12-2012,13:57:54,6,NULL,NULL,NULL,NULL,NULL,NULL,NULL,NULL,NULL,NULL,NULL
13,18,F,03-12-2012,13:57:54,7,1,Door3,L,776,6040,2000,Win60,Gray,60,304,Decision
13,18,F,03-12-2012,13:57:54,7,2,Door1,L,2350,6060,1000,Win20,Gray,20,102,Decision
13,18,F,03-12-2012,13:57:54,7,3,Door1,L,941,6080,2000,Win20,Gray,20,102,Decision
13,18,F,03-12-2012,13:57:54,7,4,Door3,L,670,6140,2000,Win60,Gray,60,3,
13,18,F,03-12-2012,13:57:54,7,5,Door4,R,665,6220,2000,Gray,Win80,80,104,Catch
13,18,F,03-12-2012,13:57:54,7,6,Door2,L,932,6220,1000,Win0,Gray,0,201,Decision
13,18,F,03-12-2012,13:57:54,7,7,Door2,L,628,6260,2000,Win40,Gray,40,2,
13,18,F,03-12-2012,13:57:54,7,8,Door4,L,568,6340,1000,Win80,Gray,80,403,Decision
13,18,F,03-12-2012,13:57:54,7,9,Door1,R,542,6360,1000,Gray,Win20,20,1,
13,18,F,03-12-2012,13:57:54,7,10,Door1,R,1350,6380,2000,Gray,Win20,20,201,Decision
13,18,F,03-12-2012,13:57:54,7,11,Door3,R,621,6440,1000,Gray,Win60,60,403,Decision
13,18,F,03-12-2012,13:57:54,7,12,Door1,R,1138,6460,1000,Gray,Win20,20,201,Decision
13,18,F,03-12-2012,13:57:54,7,13,Door3,L,658,6520,2000,Win60,Gray,60,304,Decision
13,18,F,03-12-2012,13:57:54,7,14,Door3,R,590,6580,2000,Gray,Win60,60,203,Catch
13,18,F,03-12-2012,13:57:54,7,15,Door1,L,1100,6600,2000,Win20,Gray,20,102,Decision
13,18,F,03-12-2012,13:57:54,7,16,Door3,L,990,6660,1000,Win60,Gray,60,301,Catch
13,18,F,03-12-2012,13:57:54,7,17,Door3,L,836,6720,2000,Win60,Gray,60,302,Catch
13,18,F,03-12-2012,13:57:54,7,18,Door4,R,1256,6800,2000,Gray,Win80,80,204,Catch
13,18,F,03-12-2012,13:57:54,7,19,Door4,L,859,6840,2000,Win40,Gray,40,4,
13,18,F,03-12-2012,13:57:54,7,20,Door1,R,815,6860,2000,Gray,Win20,20,201,Decision
13,18,F,03-12-2012,13:57:54,7,21,Door3,R,1123,6920,2000,Gray,Win60,60,3,
13,18,F,03-12-2012,13:57:54,7,22,Door4,L,692,6960,1000,Win40,Gray,40,403,Decision
13,18,F,03-12-2012,13:57:54,7,23,Door1,L,958,6980,1000,Win20,Gray,20,102,Decision
13,18,F,03-12-2012,13:57:54,7,24,Door3,R,1102,7040,1000,Gray,Win60,60,203,Catch
13,18,F,03-12-2012,13:57:54,7,25,Door3,L,823,7100,1000,Win60,Gray,60,304,Decision
13,18,F,03-12-2012,13:57:54,7,26,Door1,L,1676,7120,2000,Win20,Gray,20,102,Decision
13,18,F,03-12-2012,13:57:54,7,27,Door4,L,1230,7200,2000,Win80,Gray,80,401,Catch
13,18,F,03-12-2012,13:57:54,7,28,Door3,R,1002,7260,2000,Gray,Win60,60,403,Decision
13,18,F,03-12-2012,13:57:54,7,29,Door4,R,888,7340,2000,Gray,Win80,80,204,Catch
13,18,F,03-12-2012,13:57:54,7,30,Door4,L,682,7420,1000,Win80,Gray,80,402,Catch
13,18,F,03-12-2012,13:57:54,7,31,Door1,L,772,7440,1000,Win20,Gray,20,1,
13,18,F,03-12-2012,13:57:54,7,32,Door2,R,1243,7440,2000,Gray,Win0,0,302,Catch
13,18,F,03-12-2012,13:57:54,7,33,Door3,L,1398,7500,2000,Win60,Gray,60,304,Decision
13,18,F,03-12-2012,13:57:54,7,34,Door1,L,1364,7520,1000,Win20,Gray,20,102,Decision
13,18,F,03-12-2012,13:57:54,7,35,Door4,R,754,7600,2000,Gray,Win80,80,4,
13,18,F,03-12-2012,13:57:54,7,36,Door3,R,1131,7660,2000,Gray,Win60,60,103,Catch
13,18,F,03-12-2012,13:57:54,7,37,Door4,L,779,7700,1000,Win40,Gray,40,401,Catch
13,18,F,03-12-2012,13:57:54,7,38,Door3,R,920,7760,1000,Gray,Win60,60,103,Catch
13,18,F,03-12-2012,13:57:54,7,39,Door4,L,769,7800,1000,Win40,Gray,40,402,Catch
13,18,F,03-12-2012,13:57:54,7,40,Door1,R,1025,7820,1000,Gray,Win20,20,201,Decision
13,18,F,03-12-2012,13:57:54,7,41,Door3,L,749,7880,2000,Win60,Gray,60,301,Catch
13,18,F,03-12-2012,13:57:54,7,42,Door4,R,1029,7920,1000,Gray,Win40,40,104,Catch
13,18,F,03-12-2012,13:57:54,7,43,Door1,R,968,7940,1000,Gray,Win20,20,201,Decision
13,18,F,03-12-2012,13:57:54,7,44,Door3,R,1439,8000,1000,Gray,Win60,60,403,Decision
13,18,F,03-12-2012,13:57:54,7,45,Door2,R,828,8000,1000,Gray,Win0,0,2,
13,18,F,03-12-2012,13:57:54,7,46,Door3,L,719,8060,1000,Win60,Gray,60,304,Decision
13,18,F,03-12-2012,13:57:54,7,47,Door3,L,912,8120,1000,Win60,Gray,60,304,Decision
13,18,F,03-12-2012,13:57:54,7,48,Door3,R,1530,8180,1000,Gray,Win60,60,403,Decision
13,18,F,03-12-2012,13:57:54,8,NULL,NULL,NULL,NULL,NULL,NULL,NULL,NULL,NULL,NULL,NULL
13,18,F,03-12-2012,13:57:54,9,1,Door4,L,1347,8220,1000,Win40,Gray,40,4,
13,18,F,03-12-2012,13:57:54,9,2,Door1,R,1411,8240,1000,Gray,Win20,20,201,Decision
13,18,F,03-12-2012,13:57:54,9,3,Door1,R,912,8260,1000,Gray,Win20,20,1,
13,18,F,03-12-2012,13:57:54,9,4,Door3,L,744,8320,2000,Win60,Gray,60,302,Catch
13,18,F,03-12-2012,13:57:54,9,5,Door3,L,975,8380,2000,Win60,Gray,60,302,Catch
13,18,F,03-12-2012,13:57:54,9,6,Door4,R,903,8420,2000,Gray,Win40,40,4,
13,18,F,03-12-2012,13:57:54,9,7,Door4,R,1872,8500,1000,Gray,Win80,80,104,Catch
13,18,F,03-12-2012,13:57:54,9,8,Door3,R,1162,8560,1000,Gray,Win60,60,203,Catch
13,18,F,03-12-2012,13:57:54,9,9,Door3,R,882,8620,2000,Gray,Win60,60,3,
13,18,F,03-12-2012,13:57:54,9,10,Door4,R,1251,8660,1000,Gray,Win40,40,304,Decision
13,18,F,03-12-2012,13:57:54,9,11,Door3,L,1543,8720,1000,Win60,Gray,60,304,Decision
13,18,F,03-12-2012,13:57:54,9,12,Door4,R,830,8800,2000,Gray,Win80,80,204,Catch
13,18,F,03-12-2012,13:57:54,9,13,Door4,L,1042,8880,2000,Win80,Gray,80,401,Catch
13,18,F,03-12-2012,13:57:54,9,14,Door4,R,911,8920,1000,Gray,Win40,40,104,Catch
13,18,F,03-12-2012,13:57:54,9,15,Door4,L,752,9000,2000,Win80,Gray,80,402,Catch
13,18,F,03-12-2012,13:57:54,9,16,Door3,L,1311,9060,2000,Win60,Gray,60,3,
13,18,F,03-12-2012,13:57:54,9,17,Door1,L,1328,9080,2000,Win20,Gray,20,102,Decision
13,18,F,03-12-2012,13:57:54,9,18,Door4,L,720,9160,1000,Win80,Gray,80,402,Catch
13,18,F,03-12-2012,13:57:54,9,19,Door3,L,1305,9220,2000,Win60,Gray,60,304,Decision
13,18,F,03-12-2012,13:57:54,9,20,Door2,L,642,9220,2000,Win0,Gray,0,2,
13,18,F,03-12-2012,13:57:54,9,21,Door3,L,798,9280,1000,Win60,Gray,60,304,Decision
13,18,F,03-12-2012,13:57:54,9,22,Door1,R,1499,9300,2000,Gray,Win20,20,201,Decision
13,18,F,03-12-2012,13:57:54,9,23,Door3,R,686,9360,1000,Gray,Win60,60,403,Decision
13,18,F,03-12-2012,13:57:54,9,24,Door3,R,1119,9420,1000,Gray,Win60,60,403,Decision
13,18,F,03-12-2012,13:57:54,9,25,Door1,R,960,9440,1000,Gray,Win20,20,201,Decision
13,18,F,03-12-2012,13:57:54,9,26,Door2,R,4671,9440,2000,Gray,Win0,0,2,
13,18,F,03-12-2012,13:57:54,9,27,Door3,R,946,9500,1000,Gray,Win60,60,403,Decision
13,18,F,03-12-2012,13:57:54,9,28,Door3,R,1233,9560,1000,Gray,Win60,60,403,Decision
13,18,F,03-12-2012,13:57:54,9,29,Door1,L,813,9580,2000,Win20,Gray,20,102,Decision
13,18,F,03-12-2012,13:57:54,9,30,Door1,R,690,9600,1000,Gray,Win20,20,201,Decision
13,18,F,03-12-2012,13:57:54,9,31,Door4,L,908,9680,1000,Win80,Gray,80,401,Catch
13,18,F,03-12-2012,13:57:54,9,32,Door3,L,766,9740,2000,Win60,Gray,60,301,Catch
13,18,F,03-12-2012,13:57:54,9,33,Door3,R,1013,9800,1000,Gray,Win60,60,403,Decision
13,18,F,03-12-2012,13:57:54,9,34,Door3,R,1290,9860,2000,Gray,Win60,60,103,Catch
13,18,F,03-12-2012,13:57:54,9,35,Door1,L,684,9880,2000,Win20,Gray,20,102,Decision
13,18,F,03-12-2012,13:57:54,9,36,Door3,L,982,9940,1000,Win60,Gray,60,304,Decision
13,18,F,03-12-2012,13:57:54,9,37,Door1,L,643,9960,2000,Win20,Gray,20,102,Decision
13,18,F,03-12-2012,13:57:54,9,38,Door4,L,687,10040,2000,Win80,Gray,80,403,Decision
13,18,F,03-12-2012,13:57:54,9,39,Door1,R,617,10060,2000,Gray,Win20,20,201,Decision
13,18,F,03-12-2012,13:57:54,9,40,Door3,R,750,10120,2000,Gray,Win60,60,103,Catch
13,18,F,03-12-2012,13:57:54,9,41,Door1,L,637,10140,2000,Win20,Gray,20,102,Decision
13,18,F,03-12-2012,13:57:54,9,42,Door1,R,738,10160,2000,Gray,Win20,20,201,Decision
13,18,F,03-12-2012,13:57:54,9,43,Door4,R,1122,10200,1000,Gray,Win40,40,304,Decision
13,18,F,03-12-2012,13:57:54,9,44,Door3,L,963,10260,2000,Win60,Gray,60,301,Catch
13,18,F,03-12-2012,13:57:54,9,45,Door1,L,601,10280,2000,Win20,Gray,20,1,
13,18,F,03-12-2012,13:57:54,9,46,Door1,L,1055,10300,2000,Win20,Gray,20,102,Decision
13,18,F,03-12-2012,13:57:54,9,47,Door4,R,1082,10340,2000,Gray,Win40,40,204,Catch
13,18,F,03-12-2012,13:57:54,9,48,Door3,R,605,10400,2000,Gray,Win60,60,203,Catch
13,18,F,03-12-2012,13:57:54,10,NULL,NULL,NULL,NULL,NULL,NULL,NULL,NULL,NULL,NULL,NULL
13,18,F,03-12-2012,13:57:54,11,1,Door1,L,1092,10420,1000,Win20,Gray,20,102,Decision
13,18,F,03-12-2012,13:57:54,11,2,Door3,L,838,10480,2000,Win60,Gray,60,301,Catch
13,18,F,03-12-2012,13:57:54,11,3,Door3,L,882,10540,1000,Win60,Gray,60,304,Decision
13,18,F,03-12-2012,13:57:54,11,4,Door3,R,1557,10600,1000,Gray,Win60,60,103,Catch
13,18,F,03-12-2012,13:57:54,11,5,Door1,L,2404,10620,1000,Win20,Gray,20,104,Catch
13,18,F,03-12-2012,13:57:54,11,6,Door3,R,1210,10680,1000,Gray,Win60,60,403,Decision
13,18,F,03-12-2012,13:57:54,11,7,Door4,L,870,10760,2000,Win80,Gray,80,402,Catch
13,18,F,03-12-2012,13:57:54,11,8,Door2,R,825,10760,2000,Gray,Win0,0,2,
13,18,F,03-12-2012,13:57:54,11,9,Door1,L,823,10780,1000,Win20,Gray,20,1,
13,18,F,03-12-2012,13:57:54,11,10,Door4,R,683,10860,1000,Gray,Win80,80,204,Catch
13,18,F,03-12-2012,13:57:54,11,11,Door3,L,589,10920,2000,Win60,Gray,60,301,Catch
13,18,F,03-12-2012,13:57:54,11,12,Door1,R,779,10940,1000,Gray,Win20,20,201,Decision
13,18,F,03-12-2012,13:57:54,11,13,Door1,R,1001,10960,2000,Gray,Win20,20,201,Decision
13,18,F,03-12-2012,13:57:54,11,14,Door1,R,631,10980,2000,Gray,Win20,20,201,Decision
13,18,F,03-12-2012,13:57:54,11,15,Door3,R,1435,11040,1000,Gray,Win60,60,403,Decision
13,18,F,03-12-2012,13:57:54,11,16,Door4,R,1296,11080,1000,Gray,Win40,40,304,Decision
13,18,F,03-12-2012,13:57:54,11,17,Door3,L,1904,11140,1000,Win60,Gray,60,304,Decision
13,18,F,03-12-2012,13:57:54,11,18,Door3,L,658,11200,2000,Win60,Gray,60,3,
13,18,F,03-12-2012,13:57:54,11,19,Door1,R,813,11220,2000,Gray,Win20,20,201,Decision
13,18,F,03-12-2012,13:57:54,11,20,Door4,L,810,11260,2000,Win40,Gray,40,403,Decision
13,18,F,03-12-2012,13:57:54,11,21,Door1,R,871,11280,1000,Gray,Win20,20,201,Decision
13,18,F,03-12-2012,13:57:54,11,22,Door3,R,1082,11340,2000,Gray,Win60,60,403,Decision
13,18,F,03-12-2012,13:57:54,11,23,Door4,L,756,11420,1000,Win80,Gray,80,402,Catch
13,18,F,03-12-2012,13:57:54,11,24,Door3,R,1107,11480,2000,Gray,Win60,60,403,Decision
13,18,F,03-12-2012,13:57:54,11,25,Door3,R,733,11540,2000,Gray,Win60,60,3,
13,18,F,03-12-2012,13:57:54,11,26,Door3,L,709,11600,1000,Win60,Gray,60,302,Catch
13,18,F,03-12-2012,13:57:54,11,27,Door4,R,775,11640,1000,Gray,Win40,40,204,Catch
13,18,F,03-12-2012,13:57:54,11,28,Door3,L,941,11700,1000,Win60,Gray,60,304,Decision
13,18,F,03-12-2012,13:57:54,11,29,Door3,R,997,11760,2000,Gray,Win60,60,403,Decision
13,18,F,03-12-2012,13:57:54,11,30,Door1,L,1162,11780,1000,Win20,Gray,20,102,Decision
13,18,F,03-12-2012,13:57:54,11,31,Door1,R,881,11800,1000,Gray,Win20,20,1,
13,18,F,03-12-2012,13:57:54,11,32,Door3,L,963,11860,1000,Win60,Gray,60,304,Decision
13,18,F,03-12-2012,13:57:54,11,33,Door4,L,794,11900,2000,Win40,Gray,40,401,Catch
13,18,F,03-12-2012,13:57:54,11,34,Door1,L,711,11920,2000,Win20,Gray,20,102,Decision
13,18,F,03-12-2012,13:57:54,11,35,Door4,R,529,11960,2000,Gray,Win40,40,104,Catch
13,18,F,03-12-2012,13:57:54,11,36,Door3,R,737,12020,2000,Gray,Win60,60,203,Catch
13,18,F,03-12-2012,13:57:54,11,37,Door4,R,1353,12060,2000,Gray,Win40,40,4,
13,18,F,03-12-2012,13:57:54,11,38,Door3,L,728,12120,1000,Win60,Gray,60,304,Decision
13,18,F,03-12-2012,13:57:54,11,39,Door3,L,760,12180,2000,Win60,Gray,60,302,Catch
13,18,F,03-12-2012,13:57:54,11,40,Door1,L,855,12200,2000,Win20,Gray,20,102,Decision
13,18,F,03-12-2012,13:57:54,11,41,Door1,L,2555,12220,2000,Win20,Gray,20,102,Decision
13,18,F,03-12-2012,13:57:54,11,42,Door3,R,786,12280,1000,Gray,Win60,60,203,Catch
13,18,F,03-12-2012,13:57:54,11,43,Door2,L,1209,12280,2000,Win0,Gray,0,2,
13,18,F,03-12-2012,13:57:54,11,44,Door4,L,654,12320,2000,Win40,Gray,40,4,
13,18,F,03-12-2012,13:57:54,11,45,Door4,L,929,12360,2000,Win40,Gray,40,401,Catch
13,18,F,03-12-2012,13:57:54,11,46,Door3,R,1474,12420,1000,Gray,Win60,60,103,Catch
13,18,F,03-12-2012,13:57:54,11,47,Door1,R,1053,12440,1000,Gray,Win20,20,201,Decision
13,18,F,03-12-2012,13:57:54,11,48,Door1,L,2295,12460,2000,Win20,Gray,20,102,Decision
14,20,M,03-12-2012,13:58:22,1,1,Door3,R,18530,60,2000,Gray,Win60,60,403,Decision
14,20,M,03-12-2012,13:58:22,1,2,Door1,R,44842,80,2000,Gray,Win20,20,301,Catch
14,20,M,03-12-2012,13:58:22,1,3,Door2,L,2108,80,1000,Win0,Gray,0,201,Decision
14,20,M,03-12-2012,13:58:22,1,4,Door4,L,2847,160,2000,Win80,Gray,80,4,
14,20,M,03-12-2012,13:58:22,1,5,Door3,R,1835,220,2000,Gray,Win60,60,103,Catch
14,20,M,03-12-2012,13:58:22,1,6,Door4,L,1935,300,1000,Win80,Gray,80,403,Decision
14,20,M,03-12-2012,13:58:22,1,7,Door4,R,1377,340,2000,Gray,Win40,40,204,Catch
14,20,M,03-12-2012,13:58:22,1,8,Door3,L,1382,400,1000,Win60,Gray,60,302,Catch
14,20,M,03-12-2012,13:58:22,1,9,Door4,L,1429,440,2000,Win40,Gray,40,403,Decision
14,20,M,03-12-2012,13:58:22,1,10,Door3,L,1257,500,2000,Win60,Gray,60,304,Decision
14,20,M,03-12-2012,13:58:22,1,11,Door3,R,1020,560,1000,Gray,Win60,60,203,Catch
14,20,M,03-12-2012,13:58:22,1,12,Door4,L,1016,600,2000,Win40,Gray,40,402,Catch
14,20,M,03-12-2012,13:58:22,1,13,Door3,R,2230,660,2000,Gray,Win60,60,403,Decision
14,20,M,03-12-2012,13:58:22,1,14,Door1,R,2609,680,1000,Gray,Win20,20,201,Decision
14,20,M,03-12-2012,13:58:22,1,15,Door4,R,1166,760,1000,Gray,Win80,80,4,
14,20,M,03-12-2012,13:58:22,1,16,Door3,L,3181,820,2000,Win60,Gray,60,302,Catch
14,20,M,03-12-2012,13:58:22,1,17,Door4,R,2339,900,2000,Gray,Win80,80,104,Catch
14,20,M,03-12-2012,13:58:22,1,18,Door4,L,739,940,2000,Win40,Gray,40,402,Catch
14,20,M,03-12-2012,13:58:22,1,19,Door2,L,924,940,1000,Win0,Gray,0,2,
14,20,M,03-12-2012,13:58:22,1,20,Door1,R,1604,960,1000,Gray,Win20,20,201,Decision
14,20,M,03-12-2012,13:58:22,1,21,Door4,L,2506,1040,1000,Win80,Gray,80,403,Decision
14,20,M,03-12-2012,13:58:22,1,22,Door1,R,867,1060,2000,Gray,Win20,20,1,
14,20,M,03-12-2012,13:58:22,1,23,Door4,L,1094,1140,2000,Win80,Gray,80,401,Catch
14,20,M,03-12-2012,13:58:22,1,24,Door4,R,640,1220,1000,Gray,Win80,80,104,Catch
14,20,M,03-12-2012,13:58:22,1,25,Door4,L,883,1260,1000,Win40,Gray,40,401,Catch
14,20,M,03-12-2012,13:58:22,1,26,Door3,R,861,1320,1000,Gray,Win60,60,203,Catch
14,20,M,03-12-2012,13:58:22,1,27,Door1,R,2888,1340,1000,Gray,Win20,20,201,Decision
14,20,M,03-12-2012,13:58:22,1,28,Door3,R,690,1400,2000,Gray,Win60,60,3,
14,20,M,03-12-2012,13:58:22,1,29,Door4,L,1284,1440,2000,Win40,Gray,40,403,Decision
14,20,M,03-12-2012,13:58:22,1,30,Door2,R,1855,1480,2000,Gray,Win40,40,102,Decision
14,20,M,03-12-2012,13:58:22,1,31,Door4,R,986,1560,2000,Gray,Win80,80,304,Decision
14,20,M,03-12-2012,13:58:22,1,32,Door4,R,880,1600,2000,Gray,Win40,40,304,Decision
14,20,M,03-12-2012,13:58:22,1,33,Door1,L,713,1620,1000,Win20,Gray,20,1,
14,20,M,03-12-2012,13:58:22,1,34,Door4,R,987,1700,1000,Gray,Win80,80,304,Decision
14,20,M,03-12-2012,13:58:22,1,35,Door2,R,1129,1700,1000,Gray,Win0,0,102,Decision
14,20,M,03-12-2012,13:58:22,1,36,Door2,R,818,1700,2000,Gray,Win0,0,102,Decision
14,20,M,03-12-2012,13:58:22,1,37,Door1,L,974,1720,1000,Win20,Gray,20,102,Decision
14,20,M,03-12-2012,13:58:22,1,38,Door4,R,908,1800,2000,Gray,Win80,80,304,Decision
14,20,M,03-12-2012,13:58:22,1,39,Door1,R,1302,1820,2000,Gray,Win20,20,201,Decision
14,20,M,03-12-2012,13:58:22,1,40,Door3,L,1319,1880,1000,Win60,Gray,60,301,Catch
14,20,M,03-12-2012,13:58:22,1,41,Door1,L,1656,1900,2000,Win20,Gray,20,102,Decision
14,20,M,03-12-2012,13:58:22,1,42,Door4,R,1300,1940,1000,Gray,Win40,40,304,Decision
14,20,M,03-12-2012,13:58:22,1,43,Door2,R,1349,1980,2000,Gray,Win40,40,2,
14,20,M,03-12-2012,13:58:22,1,44,Door4,R,1221,2060,1000,Gray,Win80,80,204,Catch
14,20,M,03-12-2012,13:58:22,1,45,Door3,L,1146,2120,2000,Win60,Gray,60,3,
14,20,M,03-12-2012,13:58:22,1,46,Door3,R,1697,2180,1000,Gray,Win60,60,103,Catch
14,20,M,03-12-2012,13:58:22,1,47,Door1,L,1978,2200,1000,Win20,Gray,20,102,Decision
14,20,M,03-12-2012,13:58:22,1,48,Door1,R,1049,2220,1000,Gray,Win20,20,201,Decision
14,20,M,03-12-2012,13:58:22,2,NULL,NULL,NULL,NULL,NULL,NULL,NULL,NULL,NULL,NULL,NULL
14,20,M,03-12-2012,13:58:22,3,1,Door1,L,1669,2240,2000,Win20,Gray,20,1,
14,20,M,03-12-2012,13:58:22,3,2,Door2,R,1343,2280,1000,Gray,Win40,40,2,
14,20,M,03-12-2012,13:58:22,3,3,Door4,L,958,2360,1000,Win80,Gray,80,403,Decision
14,20,M,03-12-2012,13:58:22,3,4,Door4,L,711,2400,2000,Win40,Gray,40,4,
14,20,M,03-12-2012,13:58:22,3,5,Door3,L,928,2460,1000,Win60,Gray,60,304,Decision
14,20,M,03-12-2012,13:58:22,3,6,Door2,L,1839,2500,1000,Win40,Gray,40,201,Decision
14,20,M,03-12-2012,13:58:22,3,7,Door2,L,883,2500,2000,Win0,Gray,0,203,Catch
14,20,M,03-12-2012,13:58:22,3,8,Door3,R,1629,2560,2000,Gray,Win60,60,103,Catch
14,20,M,03-12-2012,13:58:22,3,9,Door1,R,1305,2580,1000,Gray,Win20,20,201,Decision
14,20,M,03-12-2012,13:58:22,3,10,Door4,R,1299,2660,2000,Gray,Win80,80,304,Decision
14,20,M,03-12-2012,13:58:22,3,11,Door2,L,1116,2700,2000,Win40,Gray,40,201,Decision
14,20,M,03-12-2012,13:58:22,3,12,Door3,L,661,2760,1000,Win60,Gray,60,3,
14,20,M,03-12-2012,13:58:22,3,13,Door4,R,1576,2840,2000,Gray,Win80,80,204,Catch
14,20,M,03-12-2012,13:58:22,3,14,Door4,R,718,2920,2000,Gray,Win80,80,4,
14,20,M,03-12-2012,13:58:22,3,15,Door2,L,1671,2960,2000,Win40,Gray,40,201,Decision
14,20,M,03-12-2012,13:58:22,3,16,Door3,R,698,3020,2000,Gray,Win60,60,3,
14,20,M,03-12-2012,13:58:22,3,17,Door4,L,947,3060,1000,Win40,Gray,40,403,Decision
